#Time;LinearAccX;LinearAccY;LinearAccZ;AngularAccX;AngularAccY;AngularAccZ
0;0;0;0;0;0;0
0.0077639710895146376;0.00098017140329560606;0;0;0;0;0
0.015527942179029275;0.0019509032201612826;0;0;0;0;0
0.023291913268543914;0.0029028467725446235;0;0;0;0;0
0.03105588435805855;0.0038268343236508981;0;0;0;0;0
0.038819855447573187;0.0047139673682599767;0;0;0;0;0
0.046583826537087827;0.0055557023301960216;0;0;0;0;0
0.054347797626602461;0.006343932841636455;0;0;0;0;0
0.062111768716117101;0.0070710678118654745;0;0;0;0;0
0.069875739805631734;0.0077301045336273687;0;0;0;0;0
0.077639710895146374;0.0083146961230254526;0;0;0;0;0
0.085403681984661015;0.0088192126434835493;0;0;0;0;0
0.093167653074175655;0.0092387953251128682;0;0;0;0;0
0.10093162416369029;0.0095694033573220892;0;0;0;0;0
0.10869559525320492;0.0098078528040323049;0;0;0;0;0
0.11645956634271956;0.0099518472667219689;0;0;0;0;0
0.1242235374322342;0.01;0;0;0;0;0
0.13198750852174884;0.0099518472667219689;0;0;0;0;0
0.13975147961126347;0.0098078528040323049;0;0;0;0;0
0.14751545070077812;0.0095694033573220892;0;0;0;0;0
0.15527942179029275;0.0092387953251128682;0;0;0;0;0
0.1630433928798074;0.0088192126434835511;0;0;0;0;0
0.17080736396932203;0.0083146961230254543;0;0;0;0;0
0.17857133505883666;0.0077301045336273713;0;0;0;0;0
0.18633530614835131;0.0070710678118654762;0;0;0;0;0
0.19409927723786594;0.0063439328416364585;0;0;0;0;0
0.20186324832738059;0.0055557023301960216;0;0;0;0;0
0.20962721941689522;0.0047139673682599784;0;0;0;0;0
0.21739119050640984;0.0038268343236508989;0;0;0;0;0
0.2251551615959245;0.0029028467725446239;0;0;0;0;0
0.23291913268543912;0.001950903220161286;0;0;0;0;0
0.24068310377495378;0.00098017140329560823;0;0;0;0;0
0.2484470748644684;1.2246467991473532e-18;0;0;0;0;0
0.25621104595398303;-0.00098017140329560151;0;0;0;0;0
0.26397501704349768;-0.0019509032201612791;0;0;0;0;0
0.27173898813301234;-0.0029028467725446257;0;0;0;0;0
0.27950295922252694;-0.0038268343236508924;0;0;0;0;0
0.28726693031204159;-0.0047139673682599767;0;0;0;0;0
0.29503090140155624;-0.0055557023301960233;0;0;0;0;0
0.30279487249107084;-0.0063439328416364498;0;0;0;0;0
0.3105588435805855;-0.0070710678118654745;0;0;0;0;0
0.31832281467010015;-0.0077301045336273669;0;0;0;0;0
0.32608678575961481;-0.0083146961230254526;0;0;0;0;0
0.3338507568491294;-0.0088192126434835493;0;0;0;0;0
0.34161472793864406;-0.0092387953251128647;0;0;0;0;0
0.34937869902815871;-0.0095694033573220892;0;0;0;0;0
0.35714267011767331;-0.0098078528040323031;0;0;0;0;0
0.36490664120718797;-0.0099518472667219689;0;0;0;0;0
0.37267061229670262;-0.01;0;0;0;0;0
0.38043458338621722;-0.0099518472667219689;0;0;0;0;0
0.38819855447573187;-0.0098078528040323066;0;0;0;0;0
0.39596252556524653;-0.0095694033573220892;0;0;0;0;0
0.40372649665476118;-0.0092387953251128665;0;0;0;0;0
0.41149046774427578;-0.0088192126434835511;0;0;0;0;0
0.41925443883379043;-0.0083146961230254543;0;0;0;0;0
0.42701840992330509;-0.0077301045336273687;0;0;0;0;0
0.43478238101281969;-0.0070710678118654771;0;0;0;0;0
0.44254635210233434;-0.0063439328416364594;0;0;0;0;0
0.45031032319184899;-0.0055557023301960216;0;0;0;0;0
0.45807429428136359;-0.0047139673682599793;0;0;0;0;0
0.46583826537087825;-0.0038268343236509041;0;0;0;0;0
0.4736022364603929;-0.0029028467725446252;0;0;0;0;0
0.48136620754990755;-0.0019509032201612873;0;0;0;0;0
0.48913017863942215;-0.00098017140329561387;0;0;0;0;0
0.49689414972893681;-2.4492935982947064e-18;0;0;0;0;0
0.50465812081845141;0.00098017140329560021;0;0;0;0;0
0.51242209190796606;0.0019509032201612737;0;0;0;0;0
0.52018606299748071;0.00290284677254462;0;0;0;0;0
0.52795003408699537;0.0038268343236508911;0;0;0;0;0
0.53571400517651002;0.0047139673682599758;0;0;0;0;0
0.54347797626602468;0.0055557023301960251;0;0;0;0;0
0.55124194735553922;0.0063439328416364481;0;0;0;0;0
0.55900591844505387;0.0070710678118654667;0;0;0;0;0
0.56676988953456853;0.007730104533627366;0;0;0;0;0
0.57453386062408318;0.0083146961230254526;0;0;0;0;0
0.58229783171359784;0.0088192126434835493;0;0;0;0;0
0.59006180280311249;0.0092387953251128682;0;0;0;0;0
0.59782577389262714;0.0095694033573220892;0;0;0;0;0
0.60558974498214169;0.0098078528040323031;0;0;0;0;0
0.61335371607165634;0.0099518472667219689;0;0;0;0;0
0.62111768716117099;0.01;0;0;0;0;0
0.62888165825068565;0.0099518472667219689;0;0;0;0;0
0.6366456293402003;0.0098078528040323066;0;0;0;0;0
0.64440960042971496;0.0095694033573220875;0;0;0;0;0
0.65217357151922961;0.0092387953251128682;0;0;0;0;0
0.65993754260874415;0.0088192126434835511;0;0;0;0;0
0.66770151369825881;0.008314696123025456;0;0;0;0;0
0.67546548478777346;0.0077301045336273756;0;0;0;0;0
0.68322945587728812;0.007071067811865484;0;0;0;0;0
0.69099342696680277;0.0063439328416364541;0;0;0;0;0
0.69875739805631742;0.0055557023301960233;0;0;0;0;0
0.70652136914583197;0.0047139673682599801;0;0;0;0;0
0.71428534023534662;0.003826834323650905;0;0;0;0;0
0.72204931132486128;0.0029028467725446343;0;0;0;0;0
0.72981328241437593;0.0019509032201612973;0;0;0;0;0
0.73757725350389058;0.00098017140329560628;0;0;0;0;0
0.74534122459340524;3.6739403974420592e-18;0;0;0;0;0
0.75310519568291989;-0.00098017140329559891;0;0;0;0;0
0.76086916677243444;-0.0019509032201612726;0;0;0;0;0
0.76863313786194909;-0.0029028467725446105;0;0;0;0;0
0.77639710895146374;-0.003826834323650882;0;0;0;0;0
0.7841610800409784;-0.0047139673682599741;0;0;0;0;0
0.79192505113049305;-0.0055557023301960173;0;0;0;0;0
0.79968902222000771;-0.0063439328416364472;0;0;0;0;0
0.80745299330952236;-0.0070710678118654788;0;0;0;0;0
0.8152169643990369;-0.0077301045336273591;0;0;0;0;0
0.82298093548855156;-0.0083146961230254508;0;0;0;0;0
0.83074490657806621;-0.0088192126434835493;0;0;0;0;0
0.83850887766758087;-0.0092387953251128647;0;0;0;0;0
0.84627284875709552;-0.0095694033573220857;0;0;0;0;0
0.85403681984661017;-0.0098078528040323049;0;0;0;0;0
0.86180079093612483;-0.0099518472667219689;0;0;0;0;0
0.86956476202563937;-0.01;0;0;0;0;0
0.87732873311515402;-0.0099518472667219689;0;0;0;0;0
0.88509270420466868;-0.0098078528040323066;0;0;0;0;0
0.89285667529418333;-0.0095694033573220927;0;0;0;0;0
0.90062064638369799;-0.0092387953251128682;0;0;0;0;0
0.90838461747321264;-0.0088192126434835511;0;0;0;0;0
0.91614858856272718;-0.008314696123025456;0;0;0;0;0
0.92391255965224184;-0.0077301045336273756;0;0;0;0;0
0.93167653074175649;-0.0070710678118654849;0;0;0;0;0
0.93944050183127115;-0.006343932841636468;0;0;0;0;0
0.9472044729207858;-0.0055557023301960242;0;0;0;0;0
0.95496844401030045;-0.0047139673682599819;0;0;0;0;0
0.96273241509981511;-0.0038268343236509063;0;0;0;0;0
0.97049638618932965;-0.0029028467725446356;0;0;0;0;0
0.97826035727884431;-0.0019509032201612984;0;0;0;0;0
0.98602432836835896;-0.00098017140329560758;0;0;0;0;0
0.99378829945787361;-4.8985871965894128e-18;0;0;0;0;0
1.0015522705473883;0.00098017140329559782;0;0;0;0;0
1.0093162416369028;0.0019509032201612715;0;0;0;0;0
1.0170802127264176;0.0029028467725446261;0;0;0;0;0
1.0248441838159321;0.0038268343236508807;0;0;0;0;0
1.0326081549054469;0.0047139673682599732;0;0;0;0;0
1.0403721259949614;0.0055557023301960164;0;0;0;0;0
1.048136097084476;0.0063439328416364325;0;0;0;0;0
1.0559000681739907;0.0070710678118654658;0;0;0;0;0
1.0636640392635053;0.0077301045336273591;0;0;0;0;0
1.07142801035302;0.0083146961230254508;0;0;0;0;0
1.0791919814425346;0.0088192126434835476;0;0;0;0;0
1.0869559525320494;0.0092387953251128717;0;0;0;0;0
1.0947199236215639;0.0095694033573220857;0;0;0;0;0
1.1024838947110784;0.0098078528040323014;0;0;0;0;0
1.1102478658005932;0.0099518472667219689;0;0;0;0;0
1.1180118368901077;0.01;0;0;0;0;0
1.1257758079796225;0.0099518472667219689;0;0;0;0;0
1.1335397790691371;0.0098078528040323066;0;0;0;0;0
1.1413037501586518;0.0095694033573220892;0;0;0;0;0
1.1490677212481664;0.0092387953251128682;0;0;0;0;0
1.1568316923376809;0.0088192126434835615;0;0;0;0;0
1.1645956634271957;0.0083146961230254578;0;0;0;0;0
1.1723596345167102;0.0077301045336273765;0;0;0;0;0
1.180123605606225;0.0070710678118654736;0;0;0;0;0
1.1878875766957395;0.0063439328416364698;0;0;0;0;0
1.1956515477852543;0.0055557023301960251;0;0;0;0;0
1.2034155188747688;0.0047139673682599827;0;0;0;0;0
1.2111794899642834;0.0038268343236509241;0;0;0;0;0
1.2189434610537981;0.0029028467725446365;0;0;0;0;0
1.2267074321433127;0.0019509032201612995;0;0;0;0;0
1.2344714032328274;0.00098017140329560888;0;0;0;0;0
1.242235374322342;6.1232339957367663e-18;0;0;0;0;0
1.2499993454118568;-0.0009801714032956143;0;0;0;0;0
1.2577633165013713;-0.00195090322016127;0;0;0;0;0
1.2655272875908858;-0.0029028467725446083;0;0;0;0;0
1.2732912586804006;-0.0038268343236508794;0;0;0;0;0
1.2810552297699151;-0.0047139673682599567;0;0;0;0;0
1.2888192008594299;-0.0055557023301960294;0;0;0;0;0
1.2965831719489445;-0.0063439328416364316;0;0;0;0;0
1.3043471430384592;-0.0070710678118654771;0;0;0;0;0
1.3121111141279738;-0.0077301045336273687;0;0;0;0;0
1.3198750852174883;-0.0083146961230254508;0;0;0;0;0
1.3276390563070031;-0.0088192126434835476;0;0;0;0;0
1.3354030273965176;-0.009238795325112863;0;0;0;0;0
1.3431669984860324;-0.0095694033573220857;0;0;0;0;0
1.3509309695755469;-0.0098078528040323014;0;0;0;0;0
1.3586949406650617;-0.0099518472667219707;0;0;0;0;0
1.3664589117545762;-0.01;0;0;0;0;0
1.3742228828440908;-0.0099518472667219724;0;0;0;0;0
1.3819868539336055;-0.0098078528040323031;0;0;0;0;0
1.3897508250231201;-0.0095694033573220979;0;0;0;0;0
1.3975147961126348;-0.0092387953251128682;0;0;0;0;0
1.4052787672021494;-0.0088192126434835528;0;0;0;0;0
1.4130427382916639;-0.0083146961230254578;0;0;0;0;0
1.4208067093811787;-0.0077301045336273782;0;0;0;0;0
1.4285706804706932;-0.0070710678118654866;0;0;0;0;0
1.436334651560208;-0.0063439328416364706;0;0;0;0;0
1.4440986226497226;-0.0055557023301960407;0;0;0;0;0
1.4518625937392373;-0.004713967368259968;0;0;0;0;0
1.4596265648287519;-0.0038268343236509249;0;0;0;0;0
1.4673905359182664;-0.0029028467725446551;0;0;0;0;0
1.4751545070077812;-0.0019509032201612834;0;0;0;0;0
1.4829184780972957;-0.00098017140329560997;0;0;0;0;0
1.4906824491868105;-7.3478807948841184e-18;0;0;0;0;0
1.498446420276325;0.00098017140329559544;0;0;0;0;0
1.5062103913658398;0.0019509032201612689;0;0;0;0;0
1.5139743624553543;0.0029028467725446074;0;0;0;0;0
1.5217383335448689;0.0038268343236508785;0;0;0;0;0
1.5295023046343836;0.0047139673682599558;0;0;0;0;0
1.5372662757238982;0.0055557023301959999;0;0;0;0;0
1.5450302468134129;0.0063439328416364585;0;0;0;0;0
1.5527942179029275;0.0070710678118654511;0;0;0;0;0
1.5605581889924423;0.0077301045336273678;0;0;0;0;0
1.5683221600819568;0.0083146961230254491;0;0;0;0;0
1.5760861311714713;0.0088192126434835458;0;0;0;0;0
1.5838501022609861;0.009238795325112863;0;0;0;0;0
1.5916140733505006;0.009569403357322084;0;0;0;0;0
1.5993780444400154;0.0098078528040323014;0;0;0;0;0
1.60714201552953;0.0099518472667219672;0;0;0;0;0
1.6149059866190447;0.01;0;0;0;0;0
1.6226699577085593;0.0099518472667219724;0;0;0;0;0
1.6304339287980738;0.0098078528040323118;0;0;0;0;0
1.6381978998875886;0.0095694033573220892;0;0;0;0;0
1.6459618709771031;0.0092387953251128682;0;0;0;0;0
1.6537258420666179;0.0088192126434835545;0;0;0;0;0
1.6614898131561324;0.0083146961230254578;0;0;0;0;0
1.6692537842456472;0.0077301045336273791;0;0;0;0;0
1.6770177553351617;0.0070710678118654866;0;0;0;0;0
1.6847817264246763;0.0063439328416364706;0;0;0;0;0
1.692545697514191;0.0055557023301960416;0;0;0;0;0
1.7003096686037056;0.0047139673682600001;0;0;0;0;0
1.7080736396932203;0.0038268343236508933;0;0;0;0;0
1.7158376107827349;0.002902846772544656;0;0;0;0;0
1.7236015818722497;0.0019509032201612845;0;0;0;0;0
1.7313655529617642;0.00098017140329561127;0;0;0;0;0
1.7391295240512787;8.572527594031472e-18;0;0;0;0;0
1.7468934951407935;-0.00098017140329559414;0;0;0;0;0
1.754657466230308;-0.0019509032201612678;0;0;0;0;0
1.7624214373198228;-0.0029028467725446057;0;0;0;0;0
1.7701854084093374;-0.0038268343236508772;0;0;0;0;0
1.7779493794988521;-0.0047139673682599853;0;0;0;0;0
1.7857133505883667;-0.0055557023301959982;0;0;0;0;0
1.7934773216778812;-0.0063439328416364307;0;0;0;0;0
1.801241292767396;-0.0070710678118654762;0;0;0;0;0
1.8090052638569105;-0.0077301045336273678;0;0;0;0;0
1.8167692349464253;-0.0083146961230254491;0;0;0;0;0
1.8245332060359398;-0.0088192126434835458;0;0;0;0;0
1.8322971771254544;-0.009238795325112863;0;0;0;0;0
1.8400611482149691;-0.009569403357322084;0;0;0;0;0
1.8478251193044837;-0.0098078528040323014;0;0;0;0;0
1.8555890903939984;-0.0099518472667219672;0;0;0;0;0
1.863353061483513;-0.01;0;0;0;0;0
1.8711170325730277;-0.0099518472667219689;0;0;0;0;0
1.8788810036625423;-0.0098078528040323118;0;0;0;0;0
1.8866449747520568;-0.0095694033573220996;0;0;0;0;0
1.8944089458415716;-0.00923879532511287;0;0;0;0;0
1.9021729169310861;-0.0088192126434835545;0;0;0;0;0
1.9099368880206009;-0.0083146961230254595;0;0;0;0;0
1.9177008591101155;-0.0077301045336273791;0;0;0;0;0
1.9254648301996302;-0.0070710678118654884;0;0;0;0;0
1.9332288012891448;-0.0063439328416364715;0;0;0;0;0
1.9409927723786593;-0.0055557023301960433;0;0;0;0;0
1.9487567434681741;-0.0047139673682600018;0;0;0;0;0
1.9565207145576886;-0.0038268343236509271;0;0;0;0;0
1.9642846856472034;-0.0029028467725446235;0;0;0;0;0
1.9720486567367179;-0.0019509032201612858;0;0;0;0;0
1.9798126278262327;-0.00098017140329561235;0;0;0;0;0
1.9875765989157472;-9.7971743931788255e-18;0;0;0;0;0
1.9953405700052618;0.00098017140329559284;0;0;0;0;0
2.0031045410947765;0.0019509032201612665;0;0;0;0;0
2.0108685121842913;0.0029028467725446391;0;0;0;0;0
2.0186324832738056;0.0038268343236508764;0;0;0;0;0
2.0263964543633204;0.0047139673682599532;0;0;0;0;0
2.0341604254528352;0.0055557023301960277;0;0;0;0;0
2.0419243965423495;0.0063439328416364299;0;0;0;0;0
2.0496883676318642;0.0070710678118654493;0;0;0;0;0
2.057452338721379;0.0077301045336273669;0;0;0;0;0
2.0652163098108938;0.0083146961230254474;0;0;0;0;0
2.0729802809004081;0.0088192126434835285;0;0;0;0;0
2.0807442519899229;0.0092387953251128613;0;0;0;0;0
2.0885082230794376;0.009569403357322084;0;0;0;0;0
2.0962721941689519;0.0098078528040322927;0;0;0;0;0
2.1040361652584667;0.0099518472667219655;0;0;0;0;0
2.1118001363479815;0.01;0;0;0;0;0
2.1195641074374962;0.0099518472667219689;0;0;0;0;0
2.1273280785270106;0.0098078528040323118;0;0;0;0;0
2.1350920496165253;0.0095694033573220892;0;0;0;0;0
2.1428560207060401;0.00923879532511287;0;0;0;0;0
2.1506199917955544;0.0088192126434835719;0;0;0;0;0
2.1583839628850692;0.0083146961230254595;0;0;0;0;0
2.1661479339745839;0.0077301045336273799;0;0;0;0;0
2.1739119050640987;0.0070710678118654641;0;0;0;0;0
2.181675876153613;0.0063439328416364724;0;0;0;0;0
2.1894398472431278;0.0055557023301960442;0;0;0;0;0
2.1972038183326426;0.0047139673682599715;0;0;0;0;0
2.2049677894221569;0.0038268343236509284;0;0;0;0;0
2.2127317605116716;0.0029028467725446582;0;0;0;0;0
2.2204957316011864;0.0019509032201612869;0;0;0;0;0
2.2282597026907012;0.00098017140329561365;0;0;0;0;0
2.2360236737802155;4.6548957980331189e-17;0;0;0;0;0
2.2437876448697303;-0.00098017140329559175;0;0;0;0;0
2.251551615959245;-0.0019509032201612652;0;0;0;0;0
2.2593155870487593;-0.0029028467725445697;0;0;0;0;0
2.2670795581382741;-0.0038268343236508751;0;0;0;0;0
2.2748435292277889;-0.0047139673682599524;0;0;0;0;0
2.2826075003173036;-0.0055557023301960259;0;0;0;0;0
2.290371471406818;-0.0063439328416364281;0;0;0;0;0
2.2981354424963327;-0.0070710678118654736;0;0;0;0;0
2.3058994135858475;-0.007730104533627366;0;0;0;0;0
2.3136633846753618;-0.0083146961230254283;0;0;0;0;0
2.3214273557648766;-0.0088192126434835441;0;0;0;0;0
2.3291913268543913;-0.0092387953251128613;0;0;0;0;0
2.3369552979439061;-0.0095694033573220944;0;0;0;0;0
2.3447192690334204;-0.0098078528040322997;0;0;0;0;0
2.3524832401229352;-0.0099518472667219655;0;0;0;0;0
2.36024721121245;-0.01;0;0;0;0;0
2.3680111823019643;-0.0099518472667219724;0;0;0;0;0
2.375775153391479;-0.0098078528040323118;0;0;0;0;0
2.3835391244809938;-0.0095694033573220892;0;0;0;0;0
2.3913030955705086;-0.0092387953251128717;0;0;0;0;0
2.3990670666600229;-0.0088192126434835719;0;0;0;0;0
2.4068310377495377;-0.0083146961230254595;0;0;0;0;0
2.4145950088390524;-0.0077301045336273808;0;0;0;0;0
2.4223589799285667;-0.0070710678118655144;0;0;0;0;0
2.4301229510180815;-0.0063439328416364741;0;0;0;0;0
2.4378869221075963;-0.005555702330196045;0;0;0;0;0
2.445650893197111;-0.0047139673682599723;0;0;0;0;0
2.4534148642866254;-0.0038268343236509297;0;0;0;0;0
2.4611788353761401;-0.0029028467725446257;0;0;0;0;0
2.4689428064656549;-0.001950903220161288;0;0;0;0;0
2.4767067775551692;-0.00098017140329565008;0;0;0;0;0
2.484470748644684;-1.2246467991473533e-17;0;0;0;0;0
2.4922347197341987;0.00098017140329559045;0;0;0;0;0
2.4999986908237135;0.0019509032201612988;0;0;0;0;0
2.5077626619132278;0.0029028467725446022;0;0;0;0;0
2.5155266330027426;0.0038268343236508742;0;0;0;0;0
2.5232906040922574;0.0047139673682599819;0;0;0;0;0
2.5310545751817717;0.0055557023301959956;0;0;0;0;0
2.5388185462712864;0.006343932841636455;0;0;0;0;0
2.5465825173608012;0.0070710678118654485;0;0;0;0;0
2.554346488450316;0.007730104533627366;0;0;0;0;0
2.5621104595398303;0.0083146961230254265;0;0;0;0;0
2.5698744306293451;0.0088192126434835441;0;0;0;0;0
2.5776384017188598;0.0092387953251128734;0;0;0;0;0
2.5854023728083741;0.0095694033573220823;0;0;0;0;0
2.5931663438978889;0.0098078528040322927;0;0;0;0;0
2.6009303149874037;0.0099518472667219655;0;0;0;0;0
2.6086942860769184;0.01;0;0;0;0;0
2.6164582571664328;0.0099518472667219724;0;0;0;0;0
2.6242222282559475;0.0098078528040323049;0;0;0;0;0
2.6319861993454623;0.0095694033573220788;0;0;0;0;0
2.6397501704349766;0.0092387953251128717;0;0;0;0;0
2.6475141415244914;0.0088192126434835736;0;0;0;0;0
2.6552781126140061;0.0083146961230254612;0;0;0;0;0
2.6630420837035209;0.0077301045336273591;0;0;0;0;0
2.6708060547930352;0.0070710678118654918;0;0;0;0;0
2.67857002588255;0.0063439328416364472;0;0;0;0;0
2.6863339969720648;0.0055557023301960459;0;0;0;0;0
2.6940979680615791;0.0047139673682600365;0;0;0;0;0
2.7018619391510938;0.0038268343236509306;0;0;0;0;0
2.7096259102406086;0.0029028467725446265;0;0;0;0;0
2.7173898813301234;0.0019509032201612544;0;0;0;0;0
2.7251538524196377;0.00098017140329561604;0;0;0;0;0
2.7329178235091525;4.899825157862589e-17;0;0;0;0;0
2.7406817945986672;-0.00098017140329558937;0;0;0;0;0
2.7484457656881816;-0.0019509032201612281;0;0;0;0;0
2.7562097367776963;-0.0029028467725446014;0;0;0;0;0
2.7639737078672111;-0.0038268343236509059;0;0;0;0;0
2.7717376789567258;-0.0047139673682600122;0;0;0;0;0
2.7795016500462402;-0.0055557023301959652;0;0;0;0;0
2.7872656211357549;-0.0063439328416364264;0;0;0;0;0
2.7950295922252697;-0.007071067811865471;0;0;0;0;0
2.802793563314784;-0.0077301045336273426;0;0;0;0;0
2.8105575344042988;-0.0083146961230254456;0;0;0;0;0
2.8183215054938136;-0.0088192126434835615;0;0;0;0;0
2.8260854765833279;-0.0092387953251128613;0;0;0;0;0
2.8338494476728426;-0.0095694033573220719;0;0;0;0;0
2.8416134187623574;-0.0098078528040322997;0;0;0;0;0
2.8493773898518722;-0.0099518472667219689;0;0;0;0;0
2.8571413609413865;-0.01;0;0;0;0;0
2.8649053320309013;-0.0099518472667219689;0;0;0;0;0
2.872669303120416;-0.0098078528040323118;0;0;0;0;0
2.8804332742099303;-0.0095694033573221118;0;0;0;0;0
2.8881972452994451;-0.0092387953251128856;0;0;0;0;0
2.8959612163889599;-0.0088192126434835563;0;0;0;0;0
2.9037251874784746;-0.0083146961230254422;0;0;0;0;0
2.911489158567989;-0.0077301045336273825;0;0;0;0;0
2.9192531296575037;-0.007071067811865517;0;0;0;0;0
2.9270171007470185;-0.0063439328416364758;0;0;0;0;0
2.9347810718365328;-0.0055557023301960771;0;0;0;0;0
2.9425450429260476;-0.0047139673682600062;0;0;0;0;0
2.9503090140155623;-0.0038268343236508989;0;0;0;0;0
2.9580729851050771;-0.002902846772544594;0;0;0;0;0
2.9658369561945914;-0.0019509032201612906;0;0;0;0;0
2.9736009272841062;-0.00098017140329565268;0;0;0;0;0
2.981364898373621;-1.4695761589768237e-17;0;0;0;0;0
2.9891288694631353;0.00098017140329555272;0;0;0;0;0
2.99689284055265;0.0019509032201612618;0;0;0;0;0
3.0046568116421648;0.0029028467725446339;0;0;0;0;0
3.0124207827316796;0.0038268343236508716;0;0;0;0;0
3.0201847538211939;0.0047139673682599177;0;0;0;0;0
3.0279487249107087;0.005555702330195993;0;0;0;0;0
3.0357126960002234;0.0063439328416364524;0;0;0;0;0
3.0434766670897377;0.0070710678118654459;0;0;0;0;0
3.0512406381792525;0.0077301045336273634;0;0;0;0;0
3.0590046092687673;0.0083146961230254265;0;0;0;0;0
3.066768580358282;0.0088192126434835424;0;0;0;0;0
3.0745325514477964;0.0092387953251128457;0;0;0;0;0
3.0822965225373111;0.0095694033573220823;0;0;0;0;0
3.0900604936268259;0.0098078528040323066;0;0;0;0;0
3.0978244647163402;0.0099518472667219655;0;0;0;0;0
3.105588435805855;0.01;0;0;0;0;0
3.1133524068953697;0.0099518472667219724;0;0;0;0;0
3.1211163779848845;0.0098078528040323049;0;0;0;0;0
3.1288803490743988;0.0095694033573221014;0;0;0;0;0
3.1366443201639136;0.0092387953251128717;0;0;0;0;0
3.1444082912534284;0.0088192126434835406;0;0;0;0;0
3.1521722623429427;0.008314696123025463;0;0;0;0;0
3.1599362334324574;0.0077301045336274059;0;0;0;0;0
3.1677002045219722;0.0070710678118654927;0;0;0;0;0
3.175464175611487;0.0063439328416364498;0;0;0;0;0
3.1832281467010013;0.0055557023301960485;0;0;0;0;0
3.1909921177905161;0.0047139673682599758;0;0;0;0;0
3.1987560888800308;0.0038268343236509328;0;0;0;0;0
3.2065200599695451;0.0029028467725446972;0;0;0;0;0
3.2142840310590599;0.0019509032201613266;0;0;0;0;0
3.2220480021485747;0.00098017140329561864;0;0;0;0;0
3.2298119732380894;-1.9606728399089417e-17;0;0;0;0;0
3.2375759443276038;-0.00098017140329558698;0;0;0;0;0
3.2453399154171185;-0.0019509032201612255;0;0;0;0;0
3.2531038865066333;-0.0029028467725445988;0;0;0;0;0
3.2608678575961476;-0.0038268343236508378;0;0;0;0;0
3.2686318286856624;-0.004713967368259948;0;0;0;0;0
3.2763957997751771;-0.0055557023301960216;0;0;0;0;0
3.2841597708646919;-0.0063439328416364793;0;0;0;0;0
3.2919237419542062;-0.0070710678118654701;0;0;0;0;0
3.299687713043721;-0.00773010453362734;0;0;0;0;0
3.3074516841332358;-0.0083146961230254439;0;0;0;0;0
3.3152156552227501;-0.008819212643483525;0;0;0;0;0
3.3229796263122648;-0.0092387953251128595;0;0;0;0;0
3.3307435974017796;-0.0095694033573220909;0;0;0;0;0
3.3385075684912944;-0.0098078528040322997;0;0;0;0;0
3.3462715395808087;-0.009951847266721962;0;0;0;0;0
3.3540355106703235;-0.01;0;0;0;0;0
3.3617994817598382;-0.0099518472667219689;0;0;0;0;0
3.3695634528493525;-0.0098078528040323118;0;0;0;0;0
3.3773274239388673;-0.0095694033573220909;0;0;0;0;0
3.3850913950283821;-0.0092387953251128873;0;0;0;0;0
3.3928553661178968;-0.008819212643483558;0;0;0;0;0
3.4006193372074112;-0.0083146961230254821;0;0;0;0;0
3.4083833082969259;-0.0077301045336273834;0;0;0;0;0
3.4161472793864407;-0.0070710678118654684;0;0;0;0;0
3.423911250475955;-0.0063439328416364776;0;0;0;0;0
3.4316752215654698;-0.0055557023301960788;0;0;0;0;0
3.4394391926549845;-0.0047139673682600079;0;0;0;0;0
3.4472031637444993;-0.0038268343236509011;0;0;0;0;0
3.4549671348340136;-0.0029028467725446643;0;0;0;0;0
3.4627311059235284;-0.0019509032201612928;0;0;0;0;0
3.4704950770130432;-0.00098017140329558438;0;0;0;0;0
3.4782590481025575;-1.7145055188062944e-17;0;0;0;0;0
3.4860230191920722;0.00098017140329555033;0;0;0;0;0
3.493786990281587;0.0019509032201612592;0;0;0;0;0
3.5015509613711018;0.0029028467725446317;0;0;0;0;0
3.5093149324606161;0.0038268343236508694;0;0;0;0;0
3.5170789035501309;0.0047139673682599784;0;0;0;0;0
3.5248428746396456;0.0055557023301959904;0;0;0;0;0
3.53260684572916;0.006343932841636396;0;0;0;0;0
3.5403708168186747;0.0070710678118654433;0;0;0;0;0
3.5481347879081895;0.0077301045336273626;0;0;0;0;0
3.5558987589977042;0.008314696123025463;0;0;0;0;0
3.5636627300872186;0.0088192126434835424;0;0;0;0;0
3.5714267011767333;0.0092387953251128457;0;0;0;0;0
3.5791906722662481;0.0095694033573220823;0;0;0;0;0
3.5869546433557624;0.0098078528040322927;0;0;0;0;0
3.5947186144452772;0.0099518472667219655;0;0;0;0;0
3.6024825855347919;0.01;0;0;0;0;0
3.6102465566243063;0.0099518472667219724;0;0;0;0;0
3.618010527713821;0.0098078528040323049;0;0;0;0;0
3.6257744988033358;0.0095694033573221014;0;0;0;0;0
3.6335384698928506;0.0092387953251128734;0;0;0;0;0
3.6413024409823649;0.0088192126434835753;0;0;0;0;0
3.6490664120718797;0.008314696123025463;0;0;0;0;0
3.6568303831613944;0.0077301045336273626;0;0;0;0;0
3.6645943542509087;0.0070710678118654944;0;0;0;0;0
3.6723583253404235;0.0063439328416365062;0;0;0;0;0
3.6801222964299383;0.0055557023301960511;0;0;0;0;0
3.687886267519453;0.0047139673682599784;0;0;0;0;0
3.6956502386089674;0.0038268343236509349;0;0;0;0;0
3.7034142096984821;0.0029028467725446317;0;0;0;0;0
3.7111781807879969;0.001950903220161329;0;0;0;0;0
3.7189421518775112;0.00098017140329569171;0;0;0;0;0
3.726706122967026;5.3896838775215304e-17;0;0;0;0;0
3.7344700940565407;-0.00098017140329558438;0;0;0;0;0
3.7422340651460555;-0.001950903220161293;0;0;0;0;0
3.7499980362355698;-0.0029028467725445966;0;0;0;0;0
3.7577620073250846;-0.0038268343236508356;0;0;0;0;0
3.7655259784145994;-0.0047139673682599454;0;0;0;0;0
3.7732899495041137;-0.0055557023301959609;0;0;0;0;0
3.7810539205936284;-0.0063439328416364229;0;0;0;0;0
3.7888178916831432;-0.0070710678118654684;0;0;0;0;0
3.796581862772658;-0.0077301045336273834;0;0;0;0;0
3.8043458338621723;-0.0083146961230254439;0;0;0;0;0
3.8121098049516871;-0.0088192126434835233;0;0;0;0;0
3.8198737760412018;-0.0092387953251128595;0;0;0;0;0
3.8276377471307161;-0.0095694033573220701;0;0;0;0;0
3.8354017182202309;-0.0098078528040322997;0;0;0;0;0
3.8431656893097457;-0.0099518472667219689;0;0;0;0;0
3.8509296603992604;-0.01;0;0;0;0;0
3.8586936314887748;-0.0099518472667219759;0;0;0;0;0
3.8664576025782895;-0.0098078528040323135;0;0;0;0;0
3.8742215736678043;-0.0095694033573220909;0;0;0;0;0
3.8819855447573186;-0.0092387953251128873;0;0;0;0;0
3.8897495158468334;-0.008819212643483558;0;0;0;0;0
3.8975134869363481;-0.0083146961230254855;0;0;0;0;0
3.9052774580258629;-0.007730104533627386;0;0;0;0;0
3.9130414291153772;-0.0070710678118655204;0;0;0;0;0
3.920805400204892;-0.0063439328416364793;0;0;0;0;0
3.9285693712944068;-0.0055557023301960216;0;0;0;0;0
3.9363333423839211;-0.0047139673682600105;0;0;0;0;0
3.9440973134734358;-0.0038268343236509033;0;0;0;0;0
3.9518612845629506;-0.0029028467725446669;0;0;0;0;0
3.9596252556524654;-0.0019509032201612954;0;0;0;0;0
3.9673892267419797;-0.00098017140329565745;0;0;0;0;0
3.9751531978314945;-1.9594348786357651e-17;0;0;0;0;0
3.9829171689210092;0.00098017140329561864;0;0;0;0;0
3.9906811400105235;0.001950903220161257;0;0;0;0;0
3.9984451111000383;0.002902846772544561;0;0;0;0;0
4.0062090821895531;0.0038268343236508673;0;0;0;0;0
4.0139730532790674;0.0047139673682599133;0;0;0;0;0
4.0217370243685826;0.0055557023301960485;0;0;0;0;0
4.0295009954580969;0.0063439328416364498;0;0;0;0;0
4.0372649665476112;0.0070710678118654424;0;0;0;0;0
4.0450289376371265;0.00773010453362736;0;0;0;0;0
4.0527929087266408;0.0083146961230254231;0;0;0;0;0
4.0605568798161551;0.0088192126434835077;0;0;0;0;0
4.0683208509056703;0.0092387953251128717;0;0;0;0;0
4.0760848219951846;0.0095694033573220805;0;0;0;0;0
4.0838487930846989;0.009807852804032291;0;0;0;0;0
4.0916127641742142;0.0099518472667219655;0;0;0;0;0
4.0993767352637285;0.01;0;0;0;0;0
4.1071407063532437;0.0099518472667219655;0;0;0;0;0
4.114904677442758;0.0098078528040323066;0;0;0;0;0
4.1226686485322723;0.0095694033573221031;0;0;0;0;0
4.1304326196217875;0.0092387953251128734;0;0;0;0;0
4.1381965907113019;0.0088192126434835771;0;0;0;0;0
4.1459605618008162;0.0083146961230255046;0;0;0;0;0
4.1537245328903314;0.0077301045336273634;0;0;0;0;0
4.1614885039798457;0.0070710678118654962;0;0;0;0;0
4.16925247506936;0.0063439328416365079;0;0;0;0;0
4.1770164461588752;0.005555702330196052;0;0;0;0;0
4.1847804172483896;0.0047139673682600426;0;0;0;0;0
4.1925443883379039;0.003826834323651003;0;0;0;0;0
4.2003083594274191;0.0029028467725446339;0;0;0;0;0
4.2080723305169334;0.0019509032201613314;0;0;0;0;0
4.2158363016064486;0.00098017140329562341;0;0;0;0;0
4.2236002726959629;5.6346132373510012e-17;0;0;0;0;0
4.2313642437854773;-0.0009801714032955113;0;0;0;0;0
4.2391282148749925;-0.0019509032201612906;0;0;0;0;0
4.2468921859645068;-0.002902846772544594;0;0;0;0;0
4.2546561570540211;-0.0038268343236508334;0;0;0;0;0
4.2624201281435363;-0.0047139673682600062;0;0;0;0;0
4.2701840992330506;-0.0055557023301960173;0;0;0;0;0
4.277948070322565;-0.0063439328416364203;0;0;0;0;0
4.2857120414120802;-0.0070710678118654667;0;0;0;0;0
4.2934760125015945;-0.0077301045336273366;0;0;0;0;0
4.3012399835911088;-0.0083146961230254023;0;0;0;0;0
4.309003954680624;-0.0088192126434835563;0;0;0;0;0
4.3167679257701383;-0.0092387953251128578;0;0;0;0;0
4.3245318968596536;-0.0095694033573220909;0;0;0;0;0
4.3322958679491679;-0.0098078528040322979;0;0;0;0;0
4.3400598390386822;-0.009951847266721962;0;0;0;0;0
4.3478238101281974;-0.01;0;0;0;0;0
4.3555877812177117;-0.0099518472667219689;0;0;0;0;0
4.3633517523072261;-0.0098078528040323135;0;0;0;0;0
4.3711157233967413;-0.0095694033573220927;0;0;0;0;0
4.3788796944862556;-0.0092387953251128873;0;0;0;0;0
4.3866436655757699;-0.0088192126434835944;0;0;0;0;0
4.3944076366652851;-0.0083146961230254456;0;0;0;0;0
4.4021716077547994;-0.0077301045336273869;0;0;0;0;0
4.4099355788443138;-0.0070710678118655222;0;0;0;0;0
4.417699549933829;-0.0063439328416364819;0;0;0;0;0
4.4254635210233433;-0.0055557023301960832;0;0;0;0;0
4.4332274921128585;-0.0047139673682599498;0;0;0;0;0
4.4409914632023728;-0.0038268343236509059;0;0;0;0;0
4.4487554342918871;-0.002902846772544669;0;0;0;0;0
4.4565194053814023;-0.0019509032201612978;0;0;0;0;0
4.4642833764709167;-0.00098017140329566006;0;0;0;0;0
4.472047347560431;-9.3097915960662378e-17;0;0;0;0;0
4.4798113186499462;0.00098017140329561604;0;0;0;0;0
4.4875752897394605;0.0019509032201612544;0;0;0;0;0
4.4953392608289748;0.0029028467725445589;0;0;0;0;0
4.50310323191849;0.0038268343236508651;0;0;0;0;0
4.5108672030080044;0.0047139673682599107;0;0;0;0;0
4.5186311740975187;0.0055557023301959288;0;0;0;0;0
4.5263951451870339;0.0063439328416364472;0;0;0;0;0
4.5341591162765482;0.0070710678118654407;0;0;0;0;0
4.5419230873660634;0.0077301045336273591;0;0;0;0;0
4.5496870584555777;0.0083146961230254213;0;0;0;0;0
4.5574510295450921;0.0088192126434835059;0;0;0;0;0
4.5652150006346073;0.0092387953251128717;0;0;0;0;0
4.5729789717241216;0.0095694033573220788;0;0;0;0;0
4.5807429428136359;0.009807852804032291;0;0;0;0;0
4.5885069139031511;0.0099518472667219724;0;0;0;0;0
4.5962708849926655;0.01;0;0;0;0;0
4.6040348560821798;0.0099518472667219724;0;0;0;0;0
4.611798827171695;0.0098078528040323066;0;0;0;0;0
4.6195627982612093;0.0095694033573221048;0;0;0;0;0
4.6273267693507236;0.0092387953251129012;0;0;0;0;0
4.6350907404402388;0.0088192126434835441;0;0;0;0;0
4.6428547115297532;0.0083146961230254664;0;0;0;0;0
4.6506186826192684;0.007730104533627366;0;0;0;0;0
4.6583826537087827;0.0070710678118654979;0;0;0;0;0
4.666146624798297;0.0063439328416365097;0;0;0;0;0
4.6739105958878122;0.0055557023301959956;0;0;0;0;0
4.6816745669773265;0.0047139673682599819;0;0;0;0;0
4.6894385380668409;0.0038268343236509397;0;0;0;0;0
4.6972025091563561;0.0029028467725446361;0;0;0;0;0
4.7049664802458704;0.001950903220161334;0;0;0;0;0
4.7127304513353847;0.00098017140329569648;0;0;0;0;0
4.7204944224248999;-1.22588476042053e-17;0;0;0;0;0
4.7282583935144142;-0.00098017140329557961;0;0;0;0;0
4.7360223646039286;-0.0019509032201612184;0;0;0;0;0
4.7437863356934438;-0.0029028467725445918;0;0;0;0;0
4.7515503067829581;-0.0038268343236508313;0;0;0;0;0
4.7593142778724733;-0.0047139673682600036;0;0;0;0;0
4.7670782489619876;-0.0055557023301960155;0;0;0;0;0
4.7748422200515019;-0.0063439328416364186;0;0;0;0;0
4.7826061911410171;-0.0070710678118654649;0;0;0;0;0
4.7903701622305315;-0.0077301045336273357;0;0;0;0;0
4.7981341333200458;-0.0083146961230254023;0;0;0;0;0
4.805898104409561;-0.0088192126434835545;0;0;0;0;0
4.8136620754990753;-0.0092387953251128561;0;0;0;0;0
4.8214260465885896;-0.0095694033573220701;0;0;0;0;0
4.8291900176781049;-0.0098078528040322979;0;0;0;0;0
4.8369539887676192;-0.009951847266721962;0;0;0;0;0
4.8447179598571335;-0.01;0;0;0;0;0
4.8524819309466487;-0.0099518472667219689;0;0;0;0;0
4.860245902036163;-0.0098078528040323153;0;0;0;0;0
4.8680098731256773;-0.0095694033573221135;0;0;0;0;0
4.8757738442151926;-0.009238795325112889;0;0;0;0;0
4.8835378153047069;-0.0088192126434835944;0;0;0;0;0
4.8913017863942221;-0.0083146961230254474;0;0;0;0;0
4.8990657574837364;-0.0077301045336273886;0;0;0;0;0
4.9068297285732507;-0.0070710678118655239;0;0;0;0;0
4.9145936996627659;-0.0063439328416364281;0;0;0;0;0
4.9223576707522803;-0.0055557023301960259;0;0;0;0;0
4.9301216418417946;-0.0047139673682600148;0;0;0;0;0
4.9378856129313098;-0.003826834323650908;0;0;0;0;0
4.9456495840208241;-0.0029028467725446716;0;0;0;0;0
4.9534135551103384;-0.00195090322016137;0;0;0;0;0
4.9611775261998536;-0.00098017140329559175;0;0;0;0;0
4.968941497289368;-2.4492935982947065e-17;0;0;0;0;0
4.9767054683788823;0.00098017140329554296;0;0;0;0;0
4.9844694394683975;0.001950903220161252;0;0;0;0;0
4.9922334105579118;0.0029028467725445567;0;0;0;0;0
4.999997381647427;0.0038268343236509284;0;0;0;0;0
5.0077613527369413;0.0047139673682599715;0;0;0;0;0
5.0155253238264557;0.0055557023301959852;0;0;0;0;0
5.0232892949159709;0.0063439328416364446;0;0;0;0;0
5.0310532660054852;0.0070710678118654389;0;0;0;0;0
5.0388172370949995;0.0077301045336273123;0;0;0;0;0
5.0465812081845147;0.0083146961230254595;0;0;0;0;0
5.054345179274029;0.0088192126434835389;0;0;0;0;0
5.0621091503635434;0.0092387953251128439;0;0;0;0;0
5.0698731214530586;0.0095694033573220996;0;0;0;0;0
5.0776370925425729;0.0098078528040323049;0;0;0;0;0
5.0854010636320872;0.0099518472667219655;0;0;0;0;0
5.0931650347216024;0.01;0;0;0;0;0
5.1009290058111167;0.0099518472667219811;0;0;0;0;0
5.108692976900632;0.0098078528040323083;0;0;0;0;0
5.1164569479901463;0.0095694033573221048;0;0;0;0;0
5.1242209190796606;0.0092387953251129029;0;0;0;0;0
5.1319848901691758;0.0088192126434835458;0;0;0;0;0
5.1397488612586901;0.0083146961230254682;0;0;0;0;0
5.1475128323482044;0.007730104533627412;0;0;0;0;0
5.1552768034377197;0.0070710678118654493;0;0;0;0;0
5.163040774527234;0.0063439328416364576;0;0;0;0;0
5.1708047456167483;0.0055557023301960563;0;0;0;0;0
5.1785687167062635;0.0047139673682600469;0;0;0;0;0
5.1863326877957778;0.0038268343236510078;0;0;0;0;0
5.1940966588852922;0.0029028467725447748;0;0;0;0;0
5.2018606299748074;0.0019509032201613361;0;0;0;0;0
5.2096246010643217;0.00098017140329569909;0;0;0;0;0
5.2173885721538369;-9.8095540059105926e-18;0;0;0;0;0
5.2251525432433512;-0.00098017140329557701;0;0;0;0;0
5.2329165143328655;-0.001950903220161216;0;0;0;0;0
5.2406804854223807;-0.0029028467725446573;0;0;0;0;0
5.2484444565118951;-0.0038268343236508946;0;0;0;0;0
5.2562084276014094;-0.0047139673682599385;0;0;0;0;0
5.2639723986909246;-0.0055557023301960728;0;0;0;0;0
5.2717363697804389;-0.0063439328416364715;0;0;0;0;0
5.2795003408699532;-0.0070710678118654641;0;0;0;0;0
5.2872643119594684;-0.0077301045336273348;0;0;0;0;0
5.2950282830489828;-0.0083146961230254005;0;0;0;0;0
5.3027922541384971;-0.0088192126434834869;0;0;0;0;0
5.3105562252280123;-0.0092387953251128561;0;0;0;0;0
5.3183201963175266;-0.0095694033573220684;0;0;0;0;0
5.3260841674070418;-0.0098078528040323118;0;0;0;0;0
5.3338481384965561;-0.0099518472667219689;0;0;0;0;0
5.3416121095860705;-0.01;0;0;0;0;0
5.3493760806755857;-0.009951847266721962;0;0;0;0;0
5.3571400517651;-0.0098078528040323014;0;0;0;0;0
5.3649040228546143;-0.0095694033573220944;0;0;0;0;0
5.3726679939441295;-0.009238795325112889;0;0;0;0;0
5.3804319650336438;-0.0088192126434835962;0;0;0;0;0
5.3881959361231582;-0.0083146961230255272;0;0;0;0;0
5.3959599072126734;-0.0077301045336273903;0;0;0;0;0
5.4037238783021877;-0.0070710678118655257;0;0;0;0;0
5.411487849391702;-0.0063439328416365409;0;0;0;0;0
5.4192518204812172;-0.0055557023301960277;0;0;0;0;0
5.4270157915707316;-0.0047139673682600174;0;0;0;0;0
5.4347797626602468;-0.0038268343236508447;0;0;0;0;0
5.4425437337497611;-0.0029028467725446057;0;0;0;0;0
5.4503077048392754;-0.0019509032201613025;0;0;0;0;0
5.4580716759287906;-0.00098017140329566483;0;0;0;0;0
5.4658356470183049;-9.799650315725178e-17;0;0;0;0;0
5.4735996181078193;0.00098017140329546967;0;0;0;0;0
5.4813635891973345;0.0019509032201612498;0;0;0;0;0
5.4891275602868488;0.0029028467725445545;0;0;0;0;0
5.4968915313763631;0.0038268343236507948;0;0;0;0;0
5.5046555024658783;0.0047139673682599697;0;0;0;0;0
5.5124194735553926;0.0055557023301959834;0;0;0;0;0
5.520183444644907;0.0063439328416363882;0;0;0;0;0
5.5279474157344222;0.0070710678118654866;0;0;0;0;0
5.5357113868239365;0.0077301045336273556;0;0;0;0;0
5.5434753579134517;0.0083146961230254977;0;0;0;0;0
5.551239329002966;0.0088192126434835042;0;0;0;0;0
5.5590033000924803;0.0092387953251128144;0;0;0;0;0
5.5667672711819955;0.0095694033573220788;0;0;0;0;0
5.5745312422715099;0.0098078528040322892;0;0;0;0;0
5.5822952133610242;0.0099518472667219585;0;0;0;0;0
5.5900591844505394;0.01;0;0;0;0;0
5.5978231555400537;0.0099518472667219741;0;0;0;0;0
5.605587126629568;0.0098078528040323222;0;0;0;0;0
5.6133510977190832;0.009569403357322084;0;0;0;0;0
5.6211150688085976;0.0092387953251128769;0;0;0;0;0
5.6288790398981119;0.0088192126434835788;0;0;0;0;0
5.6366430109876271;0.00831469612302543;0;0;0;0;0
5.6444069820771414;0.0077301045336273678;0;0;0;0;0
5.6521709531666557;0.0070710678118655014;0;0;0;0;0
5.659934924256171;0.006343932841636514;0;0;0;0;0
5.6676988953456853;0.005555702330196117;0;0;0;0;0
5.6754628664352005;0.0047139673682599862;0;0;0;0;0
5.6832268375247148;0.003826834323650944;0;0;0;0;0
5.6909908086142291;0.0029028467725447089;0;0;0;0;0
5.6987547797037443;0.0019509032201612689;0;0;0;0;0
5.7065187507932587;0.00098017140329563078;0;0;0;0;0
5.714282721882773;6.3694013168394139e-17;0;0;0;0;0
5.7220466929722882;-0.00098017140329564531;0;0;0;0;0
5.7298106640618025;-0.0019509032201612834;0;0;0;0;0
5.7375746351513168;-0.0029028467725445875;0;0;0;0;0
5.745338606240832;-0.0038268343236508265;0;0;0;0;0
5.7531025773303464;-0.0047139673682598743;0;0;0;0;0
5.7608665484198607;-0.0055557023301958932;0;0;0;0;0
5.7686305195093759;-0.0063439328416364151;0;0;0;0;0
5.7763944905988902;-0.0070710678118654112;0;0;0;0;0
5.7841584616884054;-0.0077301045336273782;0;0;0;0;0
5.7919224327779197;-0.0083146961230254387;0;0;0;0;0
5.7996864038674341;-0.0088192126434835198;0;0;0;0;0
5.8074503749569493;-0.0092387953251128821;0;0;0;0;0
5.8152143460464636;-0.0095694033573220892;0;0;0;0;0
5.8229783171359779;-0.0098078528040322962;0;0;0;0;0
5.8307422882254931;-0.009951847266721962;0;0;0;0;0
5.8385062593150074;-0.01;0;0;0;0;0
5.8462702304045218;-0.0099518472667219846;0;0;0;0;0
5.854034201494037;-0.0098078528040323153;0;0;0;0;0
5.8617981725835513;-0.0095694033573221152;0;0;0;0;0
5.8695621436730656;-0.0092387953251129168;0;0;0;0;0
5.8773261147625808;-0.0088192126434835632;0;0;0;0;0
5.8850900858520951;-0.008314696123025489;0;0;0;0;0
5.8928540569416104;-0.007730104533627347;0;0;0;0;0
5.9006180280311247;-0.0070710678118654771;0;0;0;0;0
5.908381999120639;-0.0063439328416364871;0;0;0;0;0
5.9161459702101542;-0.0055557023301959704;0;0;0;0;0
5.9239099412996685;-0.0047139673682599567;0;0;0;0;0
5.9316739123891828;-0.0038268343236509124;0;0;0;0;0
5.9394378834786981;-0.002902846772544676;0;0;0;0;0
5.9472018545682124;-0.0019509032201613747;0;0;0;0;0
5.9549658256577267;-0.00098017140329573812;0;0;0;0;0
5.9627297967472419;-2.9391523179536474e-17;0;0;0;0;0
5.9704937678367562;0.00098017140329553797;0;0;0;0;0
5.9782577389262705;0.0019509032201611776;0;0;0;0;0
5.9860217100157858;0.00290284677254462;0;0;0;0;0
5.9937856811053001;0.0038268343236508577;0;0;0;0;0
6.0015496521948153;0.0047139673682600296;0;0;0;0;0
6.0093136232843296;0.0055557023301960398;0;0;0;0;0
6.0170775943738439;0.006343932841636442;0;0;0;0;0
6.0248415654633591;0.0070710678118654363;0;0;0;0;0
6.0326055365528735;0.0077301045336273088;0;0;0;0;0
6.0403695076423878;0.008314696123025378;0;0;0;0;0
6.048133478731903;0.0088192126434835354;0;0;0;0;0
6.0558974498214173;0.0092387953251128405;0;0;0;0;0
6.0636614209109316;0.009569403357322058;0;0;0;0;0
6.0714253920004468;0.0098078528040323031;0;0;0;0;0
6.0791893630899612;0.0099518472667219655;0;0;0;0;0
6.0869533341794755;0.01;0;0;0;0;0
6.0947173052689907;0.0099518472667219672;0;0;0;0;0
6.102481276358505;0.0098078528040323083;0;0;0;0;0
6.1102452474480202;0.0095694033573221048;0;0;0;0;0
6.1180092185375345;0.0092387953251129046;0;0;0;0;0
6.1257731896270489;0.0088192126434836135;0;0;0;0;0
6.1335371607165641;0.0083146961230254699;0;0;0;0;0
6.1413011318060784;0.0077301045336274146;0;0;0;0;0
6.1490651028955927;0.0070710678118655534;0;0;0;0;0
6.1568290739851079;0.0063439328416364602;0;0;0;0;0
6.1645930450746222;0.0055557023301960606;0;0;0;0;0
6.1723570161641366;0.0047139673682600513;0;0;0;0;0
6.1801209872536518;0.0038268343236508807;0;0;0;0;0
6.1878849583431661;0.0029028467725446434;0;0;0;0;0
6.1956489294326804;0.0019509032201613411;0;0;0;0;0
6.2034129005221956;0.00098017140329556248;0;0;0;0;0
6.2111768716117099;1.3719758034269886e-16;0;0;0;0;0
6.2189408427012252;-0.00098017140329557224;0;0;0;0;0
6.2267048137907395;-0.0019509032201612112;0;0;0;0;0
6.2344687848802538;-0.0029028467725445168;0;0;0;0;0
6.242232755969769;-0.0038268343236508903;0;0;0;0;0
6.2499967270592833;-0.004713967368259935;0;0;0;0;0
6.2577606981487977;-0.0055557023301959505;0;0;0;0;0
6.2655246692383129;-0.006343932841636468;0;0;0;0;0
6.2732886403278272;-0.0070710678118654606;0;0;0;0;0
6.2810526114173415;-0.0077301045336273314;0;0;0;0;0
6.2888165825068567;-0.0083146961230254751;0;0;0;0;0
6.296580553596371;-0.0088192126434835511;0;0;0;0;0
6.3043445246858854;-0.0092387953251128543;0;0;0;0;0
6.3121084957754006;-0.0095694033573220667;0;0;0;0;0
6.3198724668649149;-0.0098078528040322823;0;0;0;0;0
6.3276364379544301;-0.0099518472667219689;0;0;0;0;0
6.3354004090439444;-0.01;0;0;0;0;0
6.3431643801334587;-0.0099518472667219776;0;0;0;0;0
6.3509283512229739;-0.0098078528040323014;0;0;0;0;0
6.3586923223124883;-0.0095694033573220962;0;0;0;0;0
6.3664562934020026;-0.0092387953251128925;0;0;0;0;0
6.3742202644915178;-0.008819212643483532;0;0;0;0;0
6.3819842355810321;-0.0083146961230254508;0;0;0;0;0
6.3897482066705464;-0.0077301045336273938;0;0;0;0;0
6.3975121777600616;-0.0070710678118655291;0;0;0;0;0
6.405276148849576;-0.0063439328416365435;0;0;0;0;0
6.4130401199390903;-0.0055557023301961508;0;0;0;0;0
6.4208040910286055;-0.0047139673682600209;0;0;0;0;0
6.4285680621181198;-0.0038268343236509805;0;0;0;0;0
6.4363320332076341;-0.0029028467725447466;0;0;0;0;0
6.4440960042971493;-0.0019509032201613073;0;0;0;0;0
6.4518599753866637;-0.00098017140329566981;0;0;0;0;0
6.4596239464761789;3.9213456798178833e-17;0;0;0;0;0
6.4673879175656932;0.00098017140329560628;0;0;0;0;0
6.4751518886552075;0.0019509032201612448;0;0;0;0;0
6.4829158597447227;0.0029028467725445493;0;0;0;0;0
6.4906798308342371;0.0038268343236507901;0;0;0;0;0
6.4984438019237514;0.0047139673682598396;0;0;0;0;0
6.5062077730132666;0.0055557023301959782;0;0;0;0;0
6.5139717441027809;0.0063439328416363848;0;0;0;0;0
6.5217357151922952;0.0070710678118653834;0;0;0;0;0
6.5294996862818104;0.0077301045336273522;0;0;0;0;0
6.5372636573713248;0.0083146961230254161;0;0;0;0;0
6.5450276284608391;0.0088192126434835007;0;0;0;0;0
6.5527915995503543;0.0092387953251128682;0;0;0;0;0
6.5605555706398686;0.0095694033573220771;0;0;0;0;0
6.5683195417293838;0.009807852804032317;0;0;0;0;0
6.5760835128188981;0.0099518472667219724;0;0;0;0;0
6.5838474839084125;0.01;0;0;0;0;0
6.5916114549979277;0.0099518472667219741;0;0;0;0;0
6.599375426087442;0.0098078528040323222;0;0;0;0;0
6.6071393971769563;0.0095694033573221274;0;0;0;0;0
6.6149033682664715;0.0092387953251128786;0;0;0;0;0
6.6226673393559858;0.0088192126434835823;0;0;0;0;0
6.6304313104455002;0.0083146961230255115;0;0;0;0;0
6.6381952815350154;0.0077301045336273713;0;0;0;0;0
6.6459592526245297;0.0070710678118655048;0;0;0;0;0
6.653723223714044;0.0063439328416365175;0;0;0;0;0
6.6614871948035592;0.0055557023301960034;0;0;0;0;0
6.6692511658930735;0.0047139673682599905;0;0;0;0;0
6.6770151369825887;0.0038268343236509488;0;0;0;0;0
6.6847791080721031;0.0029028467725447137;0;0;0;0;0
6.6925430791616174;0.0019509032201614129;0;0;0;0;0
6.7003070502511326;0.00098017140329563555;0;0;0;0;0
6.7080710213406469;6.8592600364983554e-17;0;0;0;0;0
6.7158349924301612;-0.00098017140329549916;0;0;0;0;0
6.7235989635196765;-0.0019509032201612787;0;0;0;0;0
6.7313629346091908;-0.0029028467725445823;0;0;0;0;0
6.7391269056987051;-0.0038268343236508217;0;0;0;0;0
6.7468908767882203;-0.0047139673682599957;0;0;0;0;0
6.7546548478777346;-0.0055557023301960077;0;0;0;0;0
6.7624188189672489;-0.0063439328416364116;0;0;0;0;0
6.7701827900567642;-0.0070710678118654086;0;0;0;0;0
6.7779467611462785;-0.0077301045336272845;0;0;0;0;0
6.7857107322357937;-0.0083146961230254352;0;0;0;0;0
6.793474703325308;-0.0088192126434835181;0;0;0;0;0
6.8012386744148223;-0.0092387953251128266;0;0;0;0;0
6.8090026455043375;-0.0095694033573220875;0;0;0;0;0
6.8167666165938519;-0.0098078528040322962;0;0;0;0;0
6.8245305876833662;-0.0099518472667219603;0;0;0;0;0
6.8322945587728814;-0.01;0;0;0;0;0
6.8400585298623957;-0.0099518472667219707;0;0;0;0;0
6.84782250095191;-0.0098078528040323153;0;0;0;0;0
6.8555864720414252;-0.0095694033573220771;0;0;0;0;0
6.8633504431309396;-0.0092387953251129203;0;0;0;0;0
6.8711144142204539;-0.0088192126434836326;0;0;0;0;0
6.8788783853099691;-0.0083146961230254925;0;0;0;0;0
6.8866423563994834;-0.0077301045336274398;0;0;0;0;0
6.8944063274889986;-0.0070710678118654805;0;0;0;0;0
6.9021702985785129;-0.0063439328416364906;0;0;0;0;0
6.9099342696680273;-0.0055557023301960927;0;0;0;0;0
6.9176982407575425;-0.0047139673682599602;0;0;0;0;0
6.9254622118470568;-0.0038268343236509167;0;0;0;0;0
6.9332261829365711;-0.0029028467725446812;0;0;0;0;0
6.9409901540260863;-0.0019509032201612401;0;0;0;0;0
6.9487541251156006;-0.00098017140329560151;0;0;0;0;0
6.956518096205115;-3.4290110376125888e-17;0;0;0;0;0
6.9642820672946302;0.0009801714032955332;0;0;0;0;0
6.9720460383841445;0.0019509032201611729;0;0;0;0;0
6.9798100094736588;0.0029028467725444791;0;0;0;0;0
6.987573980563174;0.0038268343236508534;0;0;0;0;0
6.9953379516526883;0.0047139673682599003;0;0;0;0;0
7.0031019227422036;0.0055557023301960363;0;0;0;0;0
7.0108658938317179;0.0063439328416364385;0;0;0;0;0
7.0186298649212322;0.0070710678118654328;0;0;0;0;0
7.0263938360107474;0.0077301045336273964;0;0;0;0;0
7.0341578071002617;0.0083146961230254543;0;0;0;0;0
7.041921778189776;0.0088192126434835337;0;0;0;0;0
7.0496857492792913;0.0092387953251128387;0;0;0;0;0
7.0574497203688056;0.0095694033573220563;0;0;0;0;0
7.0652136914583199;0.0098078528040322754;0;0;0;0;0
7.0729776625478351;0.0099518472667219637;0;0;0;0;0
7.0807416336373494;0.01;0;0;0;0;0
7.0885056047268638;0.0099518472667219811;0;0;0;0;0
7.096269575816379;0.0098078528040323083;0;0;0;0;0
7.1040335469058933;0.0095694033573221066;0;0;0;0;0
7.1117975179954085;0.0092387953251128526;0;0;0;0;0
7.1195614890849228;0.0088192126434835493;0;0;0;0;0
7.1273254601744371;0.0083146961230254734;0;0;0;0;0
7.1350894312639523;0.0077301045336274181;0;0;0;0;0
7.1428534023534667;0.0070710678118655569;0;0;0;0;0
7.150617373442981;0.0063439328416365738;0;0;0;0;0
7.1583813445324962;0.0055557023301960641;0;0;0;0;0
7.1661453156220105;0.0047139673682600556;0;0;0;0;0
7.1739092867115248;0.0038268343236510169;0;0;0;0;0
7.18167325780104;0.0029028467725446478;0;0;0;0;0
7.1894372288905544;0.0019509032201613459;0;0;0;0;0
7.1972011999800687;0.00098017140329570884;0;0;0;0;0
7.2049651710695839;-1.2379612731767154e-20;0;0;0;0;0
7.2127291421590982;-0.00098017140329556725;0;0;0;0;0
7.2204931132486125;-0.0019509032201612065;0;0;0;0;0
7.2282570843381277;-0.0029028467725446482;0;0;0;0;0
7.2360210554276421;-0.0038268343236508851;0;0;0;0;0
7.2437850265171573;-0.0047139673682599307;0;0;0;0;0
7.2515489976066716;-0.0055557023301959461;0;0;0;0;0
7.2593129686961859;-0.0063439328416363544;0;0;0;0;0
7.2670769397857011;-0.0070710678118654563;0;0;0;0;0
7.2748409108752154;-0.0077301045336273279;0;0;0;0;0
7.2826048819647298;-0.0083146961230253953;0;0;0;0;0
7.290368853054245;-0.0088192126434835493;0;0;0;0;0
7.2981328241437593;-0.0092387953251128526;0;0;0;0;0
7.3058967952332736;-0.0095694033573220667;0;0;0;0;0
7.3136607663227888;-0.0098078528040323083;0;0;0;0;0
7.3214247374123032;-0.0099518472667219672;0;0;0;0;0
7.3291887085018175;-0.01;0;0;0;0;0
7.3369526795913327;-0.0099518472667219776;0;0;0;0;0
7.344716650680847;-0.0098078528040323309;0;0;0;0;0
7.3524806217703622;-0.0095694033573220979;0;0;0;0;0
7.3602445928598765;-0.0092387953251128925;0;0;0;0;0
7.3680085639493909;-0.0088192126434836014;0;0;0;0;0
7.3757725350389061;-0.0083146961230254543;0;0;0;0;0
7.3835365061284204;-0.0077301045336273964;0;0;0;0;0
7.3913004772179347;-0.0070710678118655326;0;0;0;0;0
7.3990644483074499;-0.0063439328416364385;0;0;0;0;0
7.4068284193969642;-0.0055557023301960363;0;0;0;0;0
7.4145923904864786;-0.0047139673682600252;0;0;0;0;0
7.4223563615759938;-0.0038268343236509852;0;0;0;0;0
7.4301203326655081;-0.002902846772544751;0;0;0;0;0
7.4378843037550224;-0.0019509032201614515;0;0;0;0;0
7.4456482748445376;-0.00098017140329567458;0;0;0;0;0
7.4534122459340519;-1.0779367755043061e-16;0;0;0;0;0
7.4611762170235671;0.00098017140329560151;0;0;0;0;0
7.4689401881130815;0.0019509032201612401;0;0;0;0;0
7.4767041592025958;0.002902846772544545;0;0;0;0;0
7.484468130292111;0.0038268343236509171;0;0;0;0;0
7.4922321013816253;0.0047139673682599602;0;0;0;0;0
7.4999960724711396;0.0055557023301959756;0;0;0;0;0
7.5077600435606549;0.0063439328416364906;0;0;0;0;0
7.5155240146501692;0.0070710678118653808;0;0;0;0;0
7.5232879857396835;0.0077301045336272594;0;0;0;0;0
7.5310519568291987;0.0083146961230254144;0;0;0;0;0
7.538815927918713;0.008819212643483499;0;0;0;0;0
7.5465798990082273;0.009238795325112811;0;0;0;0;0
7.5543438700977426;0.0095694033573220771;0;0;0;0;0
7.5621078411872569;0.0098078528040322875;0;0;0;0;0
7.5698718122767721;0.0099518472667219707;0;0;0;0;0
7.5776357833662864;0.01;0;0;0;0;0
7.5853997544558007;0.0099518472667219759;0;0;0;0;0
7.5931637255453159;0.0098078528040322962;0;0;0;0;0
7.6009276966348303;0.0095694033573220875;0;0;0;0;0
7.6086916677243446;0.0092387953251128804;0;0;0;0;0
7.6164556388138598;0.008819212643483584;0;0;0;0;0
7.6242196099033741;0.0083146961230255133;0;0;0;0;0
7.6319835809928884;0.0077301045336274641;0;0;0;0;0
7.6397475520824036;0.0070710678118655083;0;0;0;0;0
7.647511523171918;0.0063439328416365218;0;0;0;0;0
7.6552754942614323;0.0055557023301961266;0;0;0;0;0
7.6630394653509475;0.0047139673682599957;0;0;0;0;0
7.6708034364404618;0.0038268343236509536;0;0;0;0;0
7.678567407529977;0.0029028467725445823;0;0;0;0;0
7.6863313786194913;0.0019509032201612787;0;0;0;0;0
7.6940953497090057;0.00098017140329564054;0;0;0;0;0
7.7018593207985209;7.3491187561572956e-17;0;0;0;0;0
7.7096232918880352;-0.00098017140329549417;0;0;0;0;0
7.7173872629775495;-0.0019509032201611343;0;0;0;0;0
7.7251512340670647;-0.0029028467725445779;0;0;0;0;0
7.732915205156579;-0.0038268343236508174;0;0;0;0;0
7.7406791762460934;-0.0047139673682598656;0;0;0;0;0
7.7484431473356086;-0.0055557023301960034;0;0;0;0;0
7.7562071184251229;-0.0063439328416364073;0;0;0;0;0
7.7639710895146372;-0.0070710678118654051;0;0;0;0;0
7.7717350606041524;-0.0077301045336273713;0;0;0;0;0
7.7794990316936667;-0.0083146961230254317;0;0;0;0;0
7.787263002783182;-0.0088192126434835146;0;0;0;0;0
7.7950269738726963;-0.0092387953251128248;0;0;0;0;0
7.8027909449622106;-0.0095694033573220441;0;0;0;0;0
7.8105549160517258;-0.0098078528040322945;0;0;0;0;0
7.8183188871412401;-0.0099518472667219603;0;0;0;0;0
7.8260828582307544;-0.01;0;0;0;0;0
7.8338468293202697;-0.0099518472667219724;0;0;0;0;0
7.841610800409784;-0.009807852804032317;0;0;0;0;0
7.8493747714992983;-0.0095694033573221187;0;0;0;0;0
7.8571387425888135;-0.0092387953251128682;0;0;0;0;0
7.8649027136783278;-0.0088192126434835684;0;0;0;0;0
7.8726666847678421;-0.0083146961230254942;0;0;0;0;0
7.8804306558573574;-0.0077301045336273522;0;0;0;0;0
7.8881946269468717;-0.007071067811865484;0;0;0;0;0
7.8959585980363869;-0.0063439328416364949;0;0;0;0;0
7.9037225691259012;-0.0055557023301960971;0;0;0;0;0
7.9114865402154155;-0.0047139673682600903;0;0;0;0;0
7.9192505113049307;-0.0038268343236509219;0;0;0;0;0
7.9270144823944451;-0.0029028467725446855;0;0;0;0;0
7.9347784534839594;-0.0019509032201613841;0;0;0;0;0
7.9425424245734746;-0.00098017140329560628;0;0;0;0;0
7.9503063956629889;-3.9188697572715302e-17;0;0;0;0;0
7.9580703667525032;0.00098017140329552843;0;0;0;0;0
7.9658343378420184;0.0019509032201613075;0;0;0;0;0
7.9735983089315328;0.0029028467725446105;0;0;0;0;0
7.9813622800210471;0.0038268343236508491;0;0;0;0;0
7.9891262511105623;0.004713967368259896;0;0;0;0;0
7.9968902222000766;0.0055557023301959141;0;0;0;0;0
8.0046541932895909;0.006343932841636324;0;0;0;0;0
8.0124181643791061;0.0070710678118654285;0;0;0;0;0
8.0201821354686214;0.0077301045336273938;0;0;0;0;0
8.0279461065581348;0.0083146961230253728;0;0;0;0;0
8.03571007764765;0.008819212643483532;0;0;0;0;0
8.0434740487371652;0.0092387953251128925;0;0;0;0;0
8.0512380198266786;0.0095694033573220545;0;0;0;0;0
8.0590019909161938;0.0098078528040323014;0;0;0;0;0
8.0667659620057091;0.0099518472667219637;0;0;0;0;0
8.0745299330952225;0.01;0;0;0;0;0
8.0822939041847377;0.0099518472667219811;0;0;0;0;0
8.0900578752742529;0.0098078528040323101;0;0;0;0;0
8.0978218463637663;0.0095694033573221499;0;0;0;0;0
8.1055858174532815;0.0092387953251129081;0;0;0;0;0
8.1133497885427968;0.0088192126434835511;0;0;0;0;0
8.1211137596323102;0.0083146961230255549;0;0;0;0;0
8.1288777307218254;0.0077301045336274216;0;0;0;0;0
8.1366417018113406;0.0070710678118654606;0;0;0;0;0
8.144405672900854;0.0063439328416365782;0;0;0;0;0
8.1521696439903693;0.0055557023301960684;0;0;0;0;0
8.1599336150798845;0.004713967368259935;0;0;0;0;0
8.1676975861693979;0.0038268343236510212;0;0;0;0;0
8.1754615572589131;0.0029028467725447887;0;0;0;0;0
8.1832255283484283;0.0019509032201613504;0;0;0;0;0
8.1909894994379435;0.00098017140329557224;0;0;0;0;0
8.198753470527457;1.4699475473587769e-16;0;0;0;0;0
8.2065174416169722;-0.00098017140329556248;0;0;0;0;0
8.2142814127064874;-0.0019509032201613411;0;0;0;0;0
8.2220453837960008;-0.0029028467725445073;0;0;0;0;0
8.229809354885516;-0.0038268343236508807;0;0;0;0;0
8.2375733259750312;-0.0047139673682600513;0;0;0;0;0
8.2453372970645447;-0.0055557023301959418;0;0;0;0;0
8.2531012681540599;-0.0063439328416364602;0;0;0;0;0
8.2608652392435751;-0.0070710678118654528;0;0;0;0;0
8.2686292103330885;-0.0077301045336273244;0;0;0;0;0
8.2763931814226037;-0.0083146961230253918;0;0;0;0;0
8.2841571525121189;-0.0088192126434835476;0;0;0;0;0
8.2919211236016324;-0.0092387953251127971;0;0;0;0;0
8.2996850946911476;-0.0095694033573220632;0;0;0;0;0
8.3074490657806628;-0.0098078528040323083;0;0;0;0;0
8.3152130368701762;-0.0099518472667219533;0;0;0;0;0
8.3229770079596914;-0.01;0;0;0;0;0
8.3307409790492066;-0.0099518472667219655;0;0;0;0;0
8.3385049501387201;-0.0098078528040323309;0;0;0;0;0
8.3462689212282353;-0.0095694033573220979;0;0;0;0;0
8.3540328923177505;-0.009238795325112896;0;0;0;0;0
8.3617968634072639;-0.0088192126434836031;0;0;0;0;0
8.3695608344967791;-0.0083146961230255358;0;0;0;0;0
8.3773248055862943;-0.007730104533627399;0;0;0;0;0
8.3850887766758078;-0.0070710678118656367;0;0;0;0;0
8.392852747765323;-0.0063439328416365513;0;0;0;0;0
8.4006167188548382;-0.0055557023301960398;0;0;0;0;0
8.4083806899443534;-0.0047139673682599047;0;0;0;0;0
8.4161446610338668;-0.0038268343236509896;0;0;0;0;0
8.423908632123382;-0.00290284677254462;0;0;0;0;0
8.4316726032128972;-0.0019509032201613168;0;0;0;0;0
8.4394365743024107;-0.00098017140329567957;0;0;0;0;0
8.4472005453919259;-1.1269226474702002e-16;0;0;0;0;0
8.4549645164814411;0.00098017140329559652;0;0;0;0;0
8.4627284875709545;0.0019509032201610961;0;0;0;0;0
8.4704924586604697;0.0029028467725445402;0;0;0;0;0
8.4782564297499849;0.0038268343236509124;0;0;0;0;0
8.4860204008394984;0.0047139673682598309;0;0;0;0;0
8.4937843719290136;0.0055557023301959704;0;0;0;0;0
8.5015483430185288;0.0063439328416364871;0;0;0;0;0
8.5093123141080422;0.0070710678118653773;0;0;0;0;0
8.5170762851975574;0.007730104533627347;0;0;0;0;0
8.5248402562870726;0.008314696123025489;0;0;0;0;0
8.5326042273765861;0.0088192126434834955;0;0;0;0;0
8.5403681984661013;0.009238795325112863;0;0;0;0;0
8.5481321695556165;0.0095694033573220736;0;0;0;0;0
8.5558961406451299;0.0098078528040322875;0;0;0;0;0
8.5636601117346451;0.0099518472667219568;0;0;0;0;0
8.5714240828241604;0.01;0;0;0;0;0
8.5791880539136738;0.0099518472667219898;0;0;0;0;0
8.586952025003189;0.0098078528040323239;0;0;0;0;0
8.5947159960927042;0.0095694033573220892;0;0;0;0;0
8.6024799671822176;0.0092387953251129359;0;0;0;0;0
8.6102439382717328;0.0088192126434835857;0;0;0;0;0
8.6180079093612481;0.0083146961230254387;0;0;0;0;0
8.6257718804507633;0.0077301045336273782;0;0;0;0;0
8.6335358515402767;0.0070710678118655118;0;0;0;0;0
8.6412998226297919;0.0063439328416365253;0;0;0;0;0
8.6490637937193071;0.0055557023301960121;0;0;0;0;0
8.6568277648088205;0.004713967368260125;0;0;0;0;0
8.6645917358983358;0.0038268343236509579;0;0;0;0;0
8.672355706987851;0.0029028467725445875;0;0;0;0;0
8.6801196780773644;0.0019509032201614227;0;0;0;0;0
8.6878836491668796;0.00098017140329564531;0;0;0;0;0
8.6956476202563948;-6.371877239385767e-17;0;0;0;0;0
8.7034115913459082;-0.0009801714032954894;0;0;0;0;0
8.7111755624354235;-0.0019509032201612689;0;0;0;0;0
8.7189395335249387;-0.0029028467725445727;0;0;0;0;0
8.7267035046144521;-0.0038268343236508131;0;0;0;0;0
8.7344674757039673;-0.0047139673682598613;0;0;0;0;0
8.7422314467934825;-0.0055557023301959999;0;0;0;0;0
8.749995417882996;-0.0063439328416362937;0;0;0;0;0
8.7577593889725112;-0.0070710678118654008;0;0;0;0;0
8.7655233600620264;-0.0077301045336273678;0;0;0;0;0
8.7732873311515398;-0.0083146961230253502;0;0;0;0;0
8.781051302241055;-0.0088192126434835129;0;0;0;0;0
8.7888152733305702;-0.0092387953251128769;0;0;0;0;0
8.7965792444200837;-0.0095694033573220424;0;0;0;0;0
8.8043432155095989;-0.0098078528040322945;0;0;0;0;0
8.8121071865991141;-0.0099518472667219741;0;0;0;0;0
8.8198711576886275;-0.01;0;0;0;0;0
8.8276351287781427;-0.0099518472667219863;0;0;0;0;0
8.8353990998676579;-0.009807852804032317;0;0;0;0;0
8.8431630709571714;-0.0095694033573221603;0;0;0;0;0
8.8509270420466866;-0.0092387953251129237;0;0;0;0;0
8.8586910131362018;-0.0088192126434835701;0;0;0;0;0
8.866454984225717;-0.0083146961230254196;0;0;0;0;0
8.8742189553152304;-0.0077301045336274458;0;0;0;0;0
8.8819829264047456;-0.0070710678118654866;0;0;0;0;0
8.8897468974942608;-0.0063439328416363882;0;0;0;0;0
8.8975108685837743;-0.0055557023301961014;0;0;0;0;0
8.9052748396732895;-0.0047139673682599697;0;0;0;0;0
8.9130388107628047;-0.0038268343236509262;0;0;0;0;0
8.9208027818523181;-0.0029028467725446898;0;0;0;0;0
8.9285667529418333;-0.001950903220161389;0;0;0;0;0
8.9363307240313485;-0.00098017140329561127;0;0;0;0;0
8.944094695120862;-1.8619583192132476e-16;0;0;0;0;0
8.9518586662103772;0.00098017140329552345;0;0;0;0;0
8.9596226372998924;0.0019509032201613025;0;0;0;0;0
8.9673866083894058;0.0029028467725444695;0;0;0;0;0
8.975150579478921;0.0038268343236508447;0;0;0;0;0
8.9829145505684362;0.0047139673682600174;0;0;0;0;0
8.9906785216579497;0.0055557023301959097;0;0;0;0;0
8.9984424927474649;0.0063439328416364307;0;0;0;0;0
9.0062064638369801;0.007071067811865425;0;0;0;0;0
9.0139704349264935;0.0077301045336273001;0;0;0;0;0
9.0217344060160087;0.008314696123025371;0;0;0;0;0
9.0294983771055239;0.0088192126434835285;0;0;0;0;0
9.0372623481950374;0.0092387953251127815;0;0;0;0;0
9.0450263192845526;0.0095694033573220528;0;0;0;0;0
9.0527902903740678;0.0098078528040323014;0;0;0;0;0
9.0605542614635812;0.0099518472667219499;0;0;0;0;0
9.0683182325530964;0.01;0;0;0;0;0
9.0760822036426116;0.0099518472667219689;0;0;0;0;0
9.0838461747321269;0.0098078528040323118;0;0;0;0;0
9.0916101458216403;0.00956940335732211;0;0;0;0;0
9.0993741169111555;0.0092387953251129116;0;0;0;0;0
9.1071380880006707;0.0088192126434835545;0;0;0;0;0
9.1149020590901841;0.0083146961230255584;0;0;0;0;0
9.1226660301796993;0.0077301045336274242;0;0;0;0;0
9.1304300012692146;0.0070710678118654641;0;0;0;0;0
9.138193972358728;0.0063439328416365817;0;0;0;0;0
9.1459579434482432;0.0055557023301960728;0;0;0;0;0
9.1537219145377584;0.0047139673682599385;0;0;0;0;0
9.1614858856272718;0.0038268343236510256;0;0;0;0;0
9.1692498567167871;0.0029028467725446573;0;0;0;0;0
9.1770138278063023;0.001950903220161216;0;0;0;0;0
9.1847777988958157;0.00098017140329571839;0;0;0;0;0
9.1925417699853309;9.7847947804470584e-18;0;0;0;0;0
9.2003057410748461;-0.00098017140329555771;0;0;0;0;0
9.2080697121643595;-0.0019509032201611967;0;0;0;0;0
9.2158336832538748;-0.0029028467725445029;0;0;0;0;0
9.22359765434339;-0.0038268343236508764;0;0;0;0;0
9.2313616254329034;-0.0047139673682597963;0;0;0;0;0
9.2391255965224186;-0.0055557023301959383;0;0;0;0;0
9.2468895676119338;-0.0063439328416364576;0;0;0;0;0
9.2546535387014472;-0.0070710678118653496;0;0;0;0;0
9.2624175097909625;-0.0077301045336273209;0;0;0;0;0
9.2701814808804777;-0.0083146961230254682;0;0;0;0;0
9.2779454519699911;-0.0088192126434834782;0;0;0;0;0
9.2857094230595063;-0.0092387953251128491;0;0;0;0;0
9.2934733941490215;-0.0095694033573220632;0;0;0;0;0
9.3012373652385367;-0.0098078528040323083;0;0;0;0;0
9.3090013363280502;-0.0099518472667219533;0;0;0;0;0
9.3167653074175654;-0.01;0;0;0;0;0
9.3245292785070806;-0.0099518472667219655;0;0;0;0;0
9.332293249596594;-0.0098078528040323326;0;0;0;0;0
9.3400572206861092;-0.0095694033573220996;0;0;0;0;0
9.3478211917756244;-0.0092387953251128439;0;0;0;0;0
9.3555851628651379;-0.0088192126434836048;0;0;0;0;0
9.3633491339546531;-0.0083146961230254595;0;0;0;0;0
9.3711131050441683;-0.0077301045336274025;0;0;0;0;0
9.3788770761336817;-0.0070710678118655395;0;0;0;0;0
9.3866410472231969;-0.0063439328416365548;0;0;0;0;0
9.3944050183127121;-0.0055557023301960442;0;0;0;0;0
9.4021689894022256;-0.0047139673682601597;0;0;0;0;0
9.4099329604917408;-0.0038268343236509939;0;0;0;0;0
9.417696931581256;-0.0029028467725446244;0;0;0;0;0
9.4254609026707694;-0.0019509032201614613;0;0;0;0;0
9.4332248737602846;-0.00098017140329568434;0;0;0;0;0
9.4409888448497998;2.45176952084106e-17;0;0;0;0;0
9.4487528159393133;0.00098017140329545037;0;0;0;0;0
9.4565167870288285;0.0019509032201612303;0;0;0;0;0
9.4642807581183437;0.0029028467725446716;0;0;0;0;0
9.4720447292078571;0.0038268343236507771;0;0;0;0;0
9.4798087002973723;0.0047139673682598266;0;0;0;0;0
9.4875726713868875;0.0055557023301959661;0;0;0;0;0
9.495336642476401;0.0063439328416362642;0;0;0;0;0
9.5031006135659162;0.0070710678118653739;0;0;0;0;0
9.5108645846554314;0.0077301045336273435;0;0;0;0;0
9.5186285557449466;0.0083146961230254873;0;0;0;0;0
9.52639252683446;0.0088192126434834938;0;0;0;0;0
9.5341564979239752;0.0092387953251128613;0;0;0;0;0
9.5419204690134904;0.0095694033573221135;0;0;0;0;0
9.5496844401030039;0.0098078528040322875;0;0;0;0;0
9.5574484111925191;0.0099518472667219689;0;0;0;0;0
9.5652123822820343;0.01;0;0;0;0;0
9.5729763533715477;0.0099518472667219759;0;0;0;0;0
9.5807403244610629;0.0098078528040323257;0;0;0;0;0
9.5885042955505781;0.0095694033573220892;0;0;0;0;0
9.5962682666400916;0.0092387953251129393;0;0;0;0;0
