#Time;LinearAccX;LinearAccY;LinearAccZ;AngularAccX;AngularAccY;AngularAccZ
0;0;0;0;0;0;0
0.0091451316885343362;0.00098017140329560628;0;0;0;0;0
0.018290263377068672;0.0019509032201612828;0;0;0;0;0
0.02743539506560301;0.0029028467725446239;0;0;0;0;0
0.036580526754137345;0.0038268343236508981;0;0;0;0;0
0.045725658442671679;0.0047139673682599767;0;0;0;0;0
0.054870790131206021;0.0055557023301960233;0;0;0;0;0
0.064015921819740348;0.006343932841636455;0;0;0;0;0
0.07316105350827469;0.0070710678118654762;0;0;0;0;0
0.082306185196809031;0.0077301045336273704;0;0;0;0;0
0.091451316885343359;0.0083146961230254526;0;0;0;0;0
0.1005964485738777;0.0088192126434835511;0;0;0;0;0
0.10974158026241204;0.0092387953251128682;0;0;0;0;0
0.11888671195094637;0.0095694033573220892;0;0;0;0;0
0.1280318436394807;0.0098078528040323049;0;0;0;0;0
0.13717697532801504;0.0099518472667219689;0;0;0;0;0
0.14632210701654938;0.01;0;0;0;0;0
0.15546723870508372;0.0099518472667219689;0;0;0;0;0
0.16461237039361806;0.0098078528040323049;0;0;0;0;0
0.17375750208215238;0.0095694033573220892;0;0;0;0;0
0.18290263377068672;0.0092387953251128682;0;0;0;0;0
0.19204776545922106;0.0088192126434835511;0;0;0;0;0
0.2011928971477554;0.0083146961230254508;0;0;0;0;0
0.21033802883628974;0.0077301045336273678;0;0;0;0;0
0.21948316052482408;0.0070710678118654727;0;0;0;0;0
0.2286282922133584;0.006343932841636455;0;0;0;0;0
0.23777342390189274;0.0055557023301960216;0;0;0;0;0
0.24691855559042708;0.0047139673682599741;0;0;0;0;0
0.25606368727896139;0.0038268343236508989;0;0;0;0;0
0.26520881896749576;0.0029028467725446196;0;0;0;0;0
0.27435395065603008;0.0019509032201612817;0;0;0;0;0
0.28349908234456445;0.00098017140329560389;0;0;0;0;0
0.29264421403309876;-3.2162452993532734e-18;0;0;0;0;0
0.30178934572163307;-0.00098017140329560585;0;0;0;0;0
0.31093447741016744;-0.0019509032201612837;0;0;0;0;0
0.32007960909870176;-0.0029028467725446257;0;0;0;0;0
0.32922474078723613;-0.0038268343236509007;0;0;0;0;0
0.33836987247577044;-0.0047139673682599767;0;0;0;0;0
0.34751500416430475;-0.0055557023301960233;0;0;0;0;0
0.35666013585283912;-0.0063439328416364559;0;0;0;0;0
0.36580526754137344;-0.0070710678118654745;0;0;0;0;0
0.3749503992299078;-0.0077301045336273721;0;0;0;0;0
0.38409553091844212;-0.0083146961230254526;0;0;0;0;0
0.39324066260697643;-0.0088192126434835493;0;0;0;0;0
0.4023857942955108;-0.0092387953251128682;0;0;0;0;0
0.41153092598404512;-0.0095694033573220892;0;0;0;0;0
0.42067605767257948;-0.0098078528040323049;0;0;0;0;0
0.4298211893611138;-0.0099518472667219689;0;0;0;0;0
0.43896632104964817;-0.01;0;0;0;0;0
0.44811145273818248;-0.0099518472667219689;0;0;0;0;0
0.45725658442671679;-0.0098078528040323049;0;0;0;0;0
0.46640171611525116;-0.0095694033573220875;0;0;0;0;0
0.47554684780378548;-0.0092387953251128665;0;0;0;0;0
0.48469197949231985;-0.0088192126434835458;0;0;0;0;0
0.49383711118085416;-0.0083146961230254508;0;0;0;0;0
0.50298224286938853;-0.0077301045336273634;0;0;0;0;0
0.51212737455792279;-0.0070710678118654771;0;0;0;0;0
0.52127250624645716;-0.0063439328416364524;0;0;0;0;0
0.53041763793499153;-0.0055557023301960155;0;0;0;0;0
0.53956276962352578;-0.0047139673682599793;0;0;0;0;0
0.54870790131206015;-0.0038268343236508959;0;0;0;0;0
0.55785303300059452;-0.0029028467725446161;0;0;0;0;0
0.56699816468912889;-0.0019509032201612787;0;0;0;0;0
0.57614329637766315;-0.00098017140329560498;0;0;0;0;0
0.58528842806619752;6.4324905987065469e-18;0;0;0;0;0
0.59443355975473189;0.0009801714032956091;0;0;0;0;0
0.60357869144326615;0.0019509032201612826;0;0;0;0;0
0.61272382313180052;0.0029028467725446291;0;0;0;0;0
0.62186895482033488;0.0038268343236508994;0;0;0;0;0
0.63101408650886925;0.0047139673682599836;0;0;0;0;0
0.64015921819740351;0.0055557023301960251;0;0;0;0;0
0.64930434988593788;0.0063439328416364559;0;0;0;0;0
0.65844948157447225;0.0070710678118654788;0;0;0;0;0
0.66759461326300651;0.0077301045336273713;0;0;0;0;0
0.67673974495154088;0.0083146961230254526;0;0;0;0;0
0.68588487664007525;0.0088192126434835528;0;0;0;0;0
0.69503000832860951;0.0092387953251128682;0;0;0;0;0
0.70417514001714387;0.0095694033573220892;0;0;0;0;0
0.71332027170567824;0.0098078528040323049;0;0;0;0;0
0.72246540339421261;0.0099518472667219689;0;0;0;0;0
0.73161053508274687;0.01;0;0;0;0;0
0.74075566677128124;0.0099518472667219689;0;0;0;0;0
0.74990079845981561;0.0098078528040323031;0;0;0;0;0
0.75904593014834987;0.0095694033573220875;0;0;0;0;0
0.76819106183688424;0.0092387953251128682;0;0;0;0;0
0.77733619352541861;0.0088192126434835424;0;0;0;0;0
0.78648132521395286;0.008314696123025456;0;0;0;0;0
0.79562645690248723;0.0077301045336273643;0;0;0;0;0
0.8047715885910216;0.007071067811865471;0;0;0;0;0
0.81391672027955597;0.0063439328416364541;0;0;0;0;0
0.82306185196809023;0.0055557023301960233;0;0;0;0;0
0.8322069836566246;0.0047139673682599645;0;0;0;0;0
0.84135211534515897;0.003826834323650889;0;0;0;0;0
0.85049724703369323;0.0029028467725446178;0;0;0;0;0
0.8596423787222276;0.0019509032201612798;0;0;0;0;0
0.86878751041076197;0.00098017140329560628;0;0;0;0;0
0.87793264209929633;-1.4089627996560444e-17;0;0;0;0;0
0.88707777378783059;-0.00098017140329561669;0;0;0;0;0
0.89622290547636496;-0.0019509032201612899;0;0;0;0;0
0.90536803716489933;-0.0029028467725446278;0;0;0;0;0
0.91451316885343359;-0.0038268343236508985;0;0;0;0;0
0.92365830054196796;-0.0047139673682599741;0;0;0;0;0
0.93280343223050233;-0.005555702330196032;0;0;0;0;0
0.94194856391903659;-0.006343932841636462;0;0;0;0;0
0.95109369560757095;-0.0070710678118654788;0;0;0;0;0
0.96023882729610532;-0.0077301045336273713;0;0;0;0;0
0.96938395898463969;-0.0083146961230254612;0;0;0;0;0
0.97852909067317395;-0.0088192126434835493;0;0;0;0;0
0.98767422236170832;-0.0092387953251128717;0;0;0;0;0
0.99681935405024269;-0.0095694033573220909;0;0;0;0;0
1.0059644857387771;-0.0098078528040323083;0;0;0;0;0
1.0151096174273113;-0.0099518472667219689;0;0;0;0;0
1.0242547491158456;-0.01;0;0;0;0;0
1.0333998808043801;-0.0099518472667219689;0;0;0;0;0
1.0425450124929143;-0.0098078528040323031;0;0;0;0;0
1.0516901441814486;-0.0095694033573220875;0;0;0;0;0
1.0608352758699831;-0.0092387953251128613;0;0;0;0;0
1.0699804075585173;-0.0088192126434835511;0;0;0;0;0
1.0791255392470516;-0.008314696123025456;0;0;0;0;0
1.088270670935586;-0.0077301045336273643;0;0;0;0;0
1.0974158026241203;-0.0070710678118654727;0;0;0;0;0
1.1065609343126548;-0.0063439328416364403;0;0;0;0;0
1.115706066001189;-0.0055557023301960095;0;0;0;0;0
1.1248511976897233;-0.0047139673682599819;0;0;0;0;0
1.1339963293782578;-0.0038268343236508903;0;0;0;0;0
1.143141461066792;-0.0029028467725446187;0;0;0;0;0
1.1522865927553263;-0.0019509032201612808;0;0;0;0;0
1.1614317244438608;-0.0009801714032955898;0;0;0;0;0
1.170576856132395;1.2864981197413094e-17;0;0;0;0;0
1.1797219878209293;0.00098017140329559782;0;0;0;0;0
1.1888671195094638;0.0019509032201612886;0;0;0;0;0
1.198012251197998;0.0029028467725446261;0;0;0;0;0
1.2071573828865323;0.0038268343236508972;0;0;0;0;0
1.2163025145750668;0.0047139673682599888;0;0;0;0;0
1.225447646263601;0.0055557023301960311;0;0;0;0;0
1.2345927779521353;0.0063439328416364472;0;0;0;0;0
1.2437379096406698;0.0070710678118654779;0;0;0;0;0
1.252883041329204;0.0077301045336273704;0;0;0;0;0
1.2620281730177385;0.0083146961230254595;0;0;0;0;0
1.2711733047062728;0.0088192126434835563;0;0;0;0;0
1.280318436394807;0.0092387953251128717;0;0;0;0;0
1.2894635680833415;0.0095694033573220944;0;0;0;0;0
1.2986086997718758;0.0098078528040323049;0;0;0;0;0
1.30775383146041;0.0099518472667219689;0;0;0;0;0
1.3168989631489445;0.01;0;0;0;0;0
1.3260440948374788;0.0099518472667219689;0;0;0;0;0
1.335189226526013;0.0098078528040323031;0;0;0;0;0
1.3443343582145475;0.0095694033573220823;0;0;0;0;0
1.3534794899030818;0.0092387953251128682;0;0;0;0;0
1.362624621591616;0.0088192126434835528;0;0;0;0;0
1.3717697532801505;0.0083146961230254474;0;0;0;0;0
1.3809148849686848;0.007730104533627366;0;0;0;0;0
1.390060016657219;0.0070710678118654736;0;0;0;0;0
1.3992051483457535;0.006343932841636442;0;0;0;0;0
1.4083502800342877;0.0055557023301960251;0;0;0;0;0
1.417495411722822;0.0047139673682599827;0;0;0;0;0
1.4266405434113565;0.0038268343236508911;0;0;0;0;0
1.4357856750998907;0.00290284677254462;0;0;0;0;0
1.4449308067884252;0.0019509032201612648;0;0;0;0;0
1.4540759384769595;0.0009801714032955911;0;0;0;0;0
1.4632210701654937;6.1232339957367663e-18;0;0;0;0;0
1.4723662018540282;-0.00098017140329563208;0;0;0;0;0
1.4815113335425625;-0.0019509032201612876;0;0;0;0;0
1.4906564652310967;-0.0029028467725446083;0;0;0;0;0
1.4998015969196312;-0.0038268343236509124;0;0;0;0;0
1.5089467286081655;-0.0047139673682599879;0;0;0;0;0
1.5180918602966997;-0.0055557023301960294;0;0;0;0;0
1.5272369919852342;-0.0063439328416364594;0;0;0;0;0
1.5363821236737685;-0.0070710678118654771;0;0;0;0;0
1.5455272553623027;-0.0077301045336273687;0;0;0;0;0
1.5546723870508372;-0.0083146961230254699;0;0;0;0;0
1.5638175187393715;-0.0088192126434835476;0;0;0;0;0
1.5729626504279057;-0.009238795325112863;0;0;0;0;0
1.5821077821164402;-0.0095694033573220944;0;0;0;0;0
1.5912529138049745;-0.0098078528040323083;0;0;0;0;0
1.6003980454935089;-0.0099518472667219707;0;0;0;0;0
1.6095431771820432;-0.01;0;0;0;0;0
1.6186883088705775;-0.0099518472667219689;0;0;0;0;0
1.6278334405591119;-0.0098078528040323031;0;0;0;0;0
1.6369785722476462;-0.0095694033573220892;0;0;0;0;0
1.6461237039361805;-0.0092387953251128682;0;0;0;0;0
1.6552688356247149;-0.0088192126434835354;0;0;0;0;0
1.6644139673132492;-0.0083146961230254387;0;0;0;0;0
1.6735590990017835;-0.0077301045336273782;0;0;0;0;0
1.6827042306903179;-0.0070710678118654615;0;0;0;0;0
1.6918493623788522;-0.0063439328416364429;0;0;0;0;0
1.7009944940673865;-0.0055557023301960121;0;0;0;0;0
1.7101396257559209;-0.004713967368259968;0;0;0;0;0
1.7192847574444552;-0.0038268343236508924;0;0;0;0;0
1.7284298891329894;-0.0029028467725446213;0;0;0;0;0
1.7375750208215239;-0.0019509032201612834;0;0;0;0;0
1.7467201525100582;-0.00098017140329560997;0;0;0;0;0
1.7558652841985927;2.8179255993120889e-17;0;0;0;0;0
1.7650104158871269;0.00098017140329563078;0;0;0;0;0
1.7741555475756612;0.0019509032201613036;0;0;0;0;0
1.7833006792641957;0.0029028467725446413;0;0;0;0;0
1.7924458109527299;0.0038268343236509111;0;0;0;0;0
1.8015909426412642;0.0047139673682599862;0;0;0;0;0
1.8107360743297987;0.0055557023301960285;0;0;0;0;0
1.8198812060183329;0.0063439328416364585;0;0;0;0;0
1.8290263377068672;0.0070710678118654762;0;0;0;0;0
1.8381714693954017;0.0077301045336273912;0;0;0;0;0
1.8473166010839359;0.0083146961230254491;0;0;0;0;0
1.8564617327724702;0.0088192126434835458;0;0;0;0;0
1.8656068644610047;0.0092387953251128769;0;0;0;0;0
1.8747519961495389;0.0095694033573220944;0;0;0;0;0
1.8838971278380732;0.0098078528040323083;0;0;0;0;0
1.8930422595266077;0.0099518472667219707;0;0;0;0;0
1.9021873912151419;0.01;0;0;0;0;0
1.9113325229036762;0.0099518472667219689;0;0;0;0;0
1.9204776545922106;0.0098078528040323049;0;0;0;0;0
1.9296227862807449;0.0095694033573220892;0;0;0;0;0
1.9387679179692794;0.0092387953251128561;0;0;0;0;0
1.9479130496578136;0.0088192126434835372;0;0;0;0;0
1.9570581813463479;0.0083146961230254578;0;0;0;0;0
1.9662033130348824;0.0077301045336273556;0;0;0;0;0
1.9753484447234166;0.0070710678118654623;0;0;0;0;0
1.9844935764119509;0.0063439328416364437;0;0;0;0;0
1.9936387081004854;0.0055557023301960129;0;0;0;0;0
2.0027838397890196;0.0047139673682599697;0;0;0;0;0
2.0119289714775541;0.0038268343236508608;0;0;0;0;0
2.0210741031660882;0.0029028467725446222;0;0;0;0;0
2.0302192348546226;0.0019509032201612845;0;0;0;0;0
2.0393643665431571;0.0009801714032955757;0;0;0;0;0
2.0485094982316912;8.572527594031472e-18;0;0;0;0;0
2.0576546299202256;-0.00098017140329562948;0;0;0;0;0
2.0667997616087601;-0.0019509032201613025;0;0;0;0;0
2.0759448932972941;-0.0029028467725446057;0;0;0;0;0
2.0850900249858286;-0.0038268343236509102;0;0;0;0;0
2.0942351566743631;-0.0047139673682599853;0;0;0;0;0
2.1033802883628971;-0.0055557023301960277;0;0;0;0;0
2.1125254200514316;-0.0063439328416364576;0;0;0;0;0
2.1216705517399661;-0.0070710678118655005;0;0;0;0;0
2.1308156834285001;-0.0077301045336273678;0;0;0;0;0
2.1399608151170346;-0.0083146961230254491;0;0;0;0;0
2.1491059468055691;-0.0088192126434835632;0;0;0;0;0
2.1582510784941031;-0.009238795325112863;0;0;0;0;0
2.1673962101826376;-0.0095694033573220944;0;0;0;0;0
2.1765413418711721;-0.0098078528040323083;0;0;0;0;0
2.1856864735597066;-0.0099518472667219741;0;0;0;0;0
2.1948316052482406;-0.01;0;0;0;0;0
2.2039767369367751;-0.0099518472667219689;0;0;0;0;0
2.2131218686253096;-0.0098078528040322979;0;0;0;0;0
2.2222670003138436;-0.0095694033573220892;0;0;0;0;0
2.2314121320023781;-0.0092387953251128561;0;0;0;0;0
2.2405572636909126;-0.0088192126434835372;0;0;0;0;0
2.2497023953794466;-0.0083146961230254595;0;0;0;0;0
2.2588475270679811;-0.0077301045336273565;0;0;0;0;0
2.2679926587565156;-0.0070710678118654641;0;0;0;0;0
2.2771377904450496;-0.0063439328416364437;0;0;0;0;0
2.2862829221335841;-0.0055557023301960138;0;0;0;0;0
2.2954280538221186;-0.0047139673682599385;0;0;0;0;0
2.3045731855106526;-0.0038268343236508946;0;0;0;0;0
2.3137183171991871;-0.0029028467725446235;0;0;0;0;0
2.3228634488877216;-0.0019509032201612509;0;0;0;0;0
2.3320085805762556;-0.00098017140329561235;0;0;0;0;0
2.3411537122647901;2.5729962394826188e-17;0;0;0;0;0
2.3502988439533246;0.00098017140329562818;0;0;0;0;0
2.3594439756418586;0.0019509032201612665;0;0;0;0;0
2.3685891073303931;0.0029028467725446391;0;0;0;0;0
2.3777342390189276;0.0038268343236509089;0;0;0;0;0
2.3868793707074616;0.0047139673682599845;0;0;0;0;0
2.3960245023959961;0.0055557023301960277;0;0;0;0;0
2.4051696340845305;0.0063439328416364836;0;0;0;0;0
2.4143147657730646;0.0070710678118654745;0;0;0;0;0
2.4234598974615991;0.0077301045336273669;0;0;0;0;0
2.4326050291501335;0.0083146961230254682;0;0;0;0;0
2.4417501608386676;0.0088192126434835458;0;0;0;0;0
2.4508952925272021;0.0092387953251128752;0;0;0;0;0
2.4600404242157365;0.0095694033573220944;0;0;0;0;0
2.4691855559042706;0.0098078528040322997;0;0;0;0;0
2.4783306875928051;0.0099518472667219707;0;0;0;0;0
2.4874758192813395;0.01;0;0;0;0;0
2.4966209509698736;0.0099518472667219689;0;0;0;0;0
2.5057660826584081;0.0098078528040323049;0;0;0;0;0
2.5149112143469425;0.0095694033573220788;0;0;0;0;0
2.524056346035477;0.0092387953251128561;0;0;0;0;0
2.5332014777240111;0.0088192126434835545;0;0;0;0;0
2.5423466094125455;0.0083146961230254404;0;0;0;0;0
2.55149174110108;0.0077301045336273582;0;0;0;0;0
2.560636872789614;0.0070710678118654641;0;0;0;0;0
2.5697820044781485;0.0063439328416364446;0;0;0;0;0
2.578927136166683;0.0055557023301959852;0;0;0;0;0
2.588072267855217;0.0047139673682599715;0;0;0;0;0
2.5972173995437515;0.0038268343236508959;0;0;0;0;0
2.606362531232286;0.0029028467725445905;0;0;0;0;0
2.61550766292082;0.0019509032201612869;0;0;0;0;0
2.6246527946093545;0.00098017140329557831;0;0;0;0;0
2.633797926297889;-2.4505315595678831e-17;0;0;0;0;0
2.642943057986423;-0.00098017140329559175;0;0;0;0;0
2.6520881896749575;-0.0019509032201612999;0;0;0;0;0
2.661233321363492;-0.0029028467725446374;0;0;0;0;0
2.670378453052026;-0.003826834323650908;0;0;0;0;0
2.6795235847405605;-0.0047139673682599836;0;0;0;0;0
2.688668716429095;-0.0055557023301960554;0;0;0;0;0
2.697813848117629;-0.0063439328416364559;0;0;0;0;0
2.7069589798061635;-0.0070710678118654736;0;0;0;0;0
2.716104111494698;-0.0077301045336273886;0;0;0;0;0
2.725249243183232;-0.0083146961230254474;0;0;0;0;0
2.7343943748717665;-0.0088192126434835615;0;0;0;0;0
2.743539506560301;-0.0092387953251128752;0;0;0;0;0
2.752684638248835;-0.0095694033573220823;0;0;0;0;0
2.7618297699373695;-0.0098078528040323066;0;0;0;0;0
2.770974901625904;-0.0099518472667219689;0;0;0;0;0
2.780120033314438;-0.01;0;0;0;0;0
2.7892651650029725;-0.0099518472667219689;0;0;0;0;0
2.798410296691507;-0.0098078528040322979;0;0;0;0;0
2.807555428380041;-0.0095694033573220892;0;0;0;0;0
2.8167005600685755;-0.0092387953251128717;0;0;0;0;0
2.82584569175711;-0.0088192126434835389;0;0;0;0;0
2.834990823445644;-0.0083146961230254595;0;0;0;0;0
2.8441359551341785;-0.0077301045336273582;0;0;0;0;0
2.853281086822713;-0.0070710678118654649;0;0;0;0;0
2.8624262185112475;-0.0063439328416364186;0;0;0;0;0
2.8715713501997815;-0.0055557023301960155;0;0;0;0;0
2.880716481888316;-0.0047139673682599411;0;0;0;0;0
2.8898616135768505;-0.0038268343236508642;0;0;0;0;0
2.8990067452653845;-0.0029028467725446257;0;0;0;0;0
2.908151876953919;-0.0019509032201612533;0;0;0;0;0
2.9172970086424534;-0.00098017140329557961;0;0;0;0;0
2.9264421403309875;-1.2246467991473533e-17;0;0;0;0;0
2.935587272019522;0.00098017140329562579;0;0;0;0;0
2.9447324037080564;0.001950903220161334;0;0;0;0;0
2.9538775353965905;0.0029028467725446361;0;0;0;0;0
2.963022667085125;0.0038268343236509067;0;0;0;0;0
2.9721677987736594;0.004713967368260014;0;0;0;0;0
2.9813129304621935;0.0055557023301959956;0;0;0;0;0
2.990458062150728;0.006343932841636455;0;0;0;0;0
2.9996031938392624;0.0070710678118654979;0;0;0;0;0
3.0087483255277965;0.007730104533627366;0;0;0;0;0
3.017893457216331;0.0083146961230254664;0;0;0;0;0
3.0270385889048654;0.0088192126434835771;0;0;0;0;0
3.0361837205933995;0.0092387953251128734;0;0;0;0;0
3.045328852281934;0.0095694033573221048;0;0;0;0;0
3.0544739839704684;0.0098078528040323066;0;0;0;0;0
3.0636191156590025;0.0099518472667219655;0;0;0;0;0
3.0727642473475369;0.01;0;0;0;0;0
3.0819093790360714;0.0099518472667219655;0;0;0;0;0
3.0910545107246055;0.0098078528040323049;0;0;0;0;0
3.1001996424131399;0.0095694033573220788;0;0;0;0;0
3.1093447741016744;0.0092387953251128439;0;0;0;0;0
3.1184899057902085;0.0088192126434835389;0;0;0;0;0
3.1276350374787429;0.0083146961230254612;0;0;0;0;0
3.1367801691672774;0.0077301045336273591;0;0;0;0;0
3.1459253008558115;0.0070710678118654918;0;0;0;0;0
3.1550704325443459;0.0063439328416364472;0;0;0;0;0
3.1642155642328804;0.0055557023301959878;0;0;0;0;0
3.1733606959214145;0.0047139673682599741;0;0;0;0;0
3.1825058276099489;0.0038268343236508651;0;0;0;0;0
3.1916509592984834;0.0029028467725446265;0;0;0;0;0
3.2007960909870179;0.0019509032201612544;0;0;0;0;0
3.2099412226755519;0.00098017140329561604;0;0;0;0;0
3.2190863543640864;-2.2056021997384124e-17;0;0;0;0;0
3.2282314860526209;-0.00098017140329566006;0;0;0;0;0
3.2373766177411549;-0.0019509032201612978;0;0;0;0;0
3.2465217494296894;-0.0029028467725446695;0;0;0;0;0
3.2556668811182239;-0.0038268343236509059;0;0;0;0;0
3.2648120128067579;-0.0047139673682600122;0;0;0;0;0
3.2739571444952924;-0.0055557023301960242;0;0;0;0;0
3.2831022761838269;-0.0063439328416364819;0;0;0;0;0
3.2922474078723609;-0.007071067811865471;0;0;0;0;0
3.3013925395608954;-0.0077301045336273869;0;0;0;0;0
3.3105376712494299;-0.0083146961230254855;0;0;0;0;0
3.3196828029379639;-0.0088192126434835615;0;0;0;0;0
3.3288279346264984;-0.0092387953251128873;0;0;0;0;0
3.3379730663150329;-0.0095694033573220927;0;0;0;0;0
3.3471181980035669;-0.0098078528040322997;0;0;0;0;0
3.3562633296921014;-0.0099518472667219689;0;0;0;0;0
3.3654084613806359;-0.01;0;0;0;0;0
3.3745535930691699;-0.0099518472667219689;0;0;0;0;0
3.3836987247577044;-0.0098078528040322979;0;0;0;0;0
3.3928438564462389;-0.0095694033573220701;0;0;0;0;0
3.4019889881347729;-0.0092387953251128578;0;0;0;0;0
3.4111341198233074;-0.0088192126434835563;0;0;0;0;0
3.4202792515118419;-0.0083146961230254422;0;0;0;0;0
3.4294243832003759;-0.0077301045336273825;0;0;0;0;0
3.4385695148889104;-0.0070710678118654667;0;0;0;0;0
3.4477146465774449;-0.0063439328416364203;0;0;0;0;0
3.4568597782659789;-0.0055557023301960173;0;0;0;0;0
3.4660049099545134;-0.0047139673682599428;0;0;0;0;0
3.4751500416430479;-0.0038268343236508989;0;0;0;0;0
3.4842951733315819;-0.002902846772544594;0;0;0;0;0
3.4934403050201164;-0.0019509032201612906;0;0;0;0;0
3.5025854367086509;-0.00098017140329558199;0;0;0;0;0
3.5117305683971853;5.6358511986241777e-17;0;0;0;0;0
3.5208757000857194;0.00098017140329562341;0;0;0;0;0
3.5300208317742539;0.0019509032201613314;0;0;0;0;0
3.5391659634627883;0.0029028467725446339;0;0;0;0;0
3.5483110951513224;0.0038268343236509375;0;0;0;0;0
3.5574562268398568;0.0047139673682599801;0;0;0;0;0
3.5666013585283913;0.005555702330196052;0;0;0;0;0
3.5757464902169254;0.0063439328416364524;0;0;0;0;0
3.5848916219054598;0.0070710678118654962;0;0;0;0;0
3.5940367535939943;0.0077301045336274085;0;0;0;0;0
3.6031818852825284;0.0083146961230254647;0;0;0;0;0
3.6123270169710628;0.0088192126434835771;0;0;0;0;0
3.6214721486595973;0.0092387953251128734;0;0;0;0;0
3.6306172803481314;0.0095694033573220823;0;0;0;0;0
3.6397624120366658;0.0098078528040323066;0;0;0;0;0
3.6489075437252003;0.0099518472667219724;0;0;0;0;0
3.6580526754137344;0.01;0;0;0;0;0
3.6671978071022688;0.0099518472667219655;0;0;0;0;0
3.6763429387908033;0.009807852804032291;0;0;0;0;0
3.6854880704793374;0.0095694033573220805;0;0;0;0;0
3.6946332021678718;0.0092387953251128717;0;0;0;0;0
3.7037783338564063;0.0088192126434835406;0;0;0;0;0
3.7129234655449403;0.008314696123025463;0;0;0;0;0
3.7220685972334748;0.00773010453362736;0;0;0;0;0
3.7312137289220093;0.0070710678118654424;0;0;0;0;0
3.7403588606105433;0.0063439328416364498;0;0;0;0;0
3.7495039922990778;0.0055557023301959895;0;0;0;0;0
3.7586491239876123;0.0047139673682599758;0;0;0;0;0
3.7677942556761463;0.0038268343236508673;0;0;0;0;0
3.7769393873646808;0.0029028467725446296;0;0;0;0;0
3.7860845190532153;0.001950903220161257;0;0;0;0;0
3.7952296507417493;0.00098017140329561864;0;0;0;0;0
3.8043747824302838;-1.9606728399089417e-17;0;0;0;0;0
3.8135199141188183;-0.00098017140329565745;0;0;0;0;0
3.8226650458073523;-0.0019509032201612954;0;0;0;0;0
3.8318101774958868;-0.0029028467725446669;0;0;0;0;0
3.8409553091844213;-0.0038268343236509033;0;0;0;0;0
3.8501004408729558;-0.0047139673682600105;0;0;0;0;0
3.8592455725614898;-0.0055557023301960216;0;0;0;0;0
3.8683907042500243;-0.0063439328416364793;0;0;0;0;0
3.8775358359385588;-0.0070710678118655204;0;0;0;0;0
3.8866809676270928;-0.007730104533627386;0;0;0;0;0
3.8958260993156273;-0.0083146961230254855;0;0;0;0;0
3.9049712310041618;-0.008819212643483558;0;0;0;0;0
3.9141163626926958;-0.0092387953251128595;0;0;0;0;0
3.9232614943812303;-0.0095694033573220909;0;0;0;0;0
3.9324066260697648;-0.0098078528040323135;0;0;0;0;0
3.9415517577582988;-0.0099518472667219689;0;0;0;0;0
3.9506968894468333;-0.01;0;0;0;0;0
3.9598420211353678;-0.009951847266721962;0;0;0;0;0
3.9689871528239018;-0.0098078528040322997;0;0;0;0;0
3.9781322845124363;-0.0095694033573220909;0;0;0;0;0
3.9872774162009708;-0.0092387953251128595;0;0;0;0;0
3.9964225478895048;-0.008819212643483558;0;0;0;0;0
4.0055676795780393;-0.0083146961230254439;0;0;0;0;0
4.0147128112665733;-0.0077301045336273834;0;0;0;0;0
4.0238579429551082;-0.0070710678118654181;0;0;0;0;0
4.0330030746436423;-0.0063439328416364229;0;0;0;0;0
4.0421482063321763;-0.0055557023301960199;0;0;0;0;0
4.0512933380207112;-0.0047139673682599454;0;0;0;0;0
4.0604384697092453;-0.0038268343236509011;0;0;0;0;0
4.0695836013977793;-0.0029028467725446643;0;0;0;0;0
4.0787287330863142;-0.0019509032201612232;0;0;0;0;0
4.0878738647748483;-0.00098017140329558438;0;0;0;0;0
4.0970189964633823;-1.7145055188062944e-17;0;0;0;0;0
4.1061641281519172;0.00098017140329569171;0;0;0;0;0
4.1153092598404513;0.001950903220161329;0;0;0;0;0
4.1244543915289853;0.0029028467725446317;0;0;0;0;0
4.1335995232175202;0.0038268343236509349;0;0;0;0;0
4.1427446549060543;0.0047139673682599784;0;0;0;0;0
4.1518897865945883;0.0055557023301959904;0;0;0;0;0
4.1610349182831232;0.0063439328416365062;0;0;0;0;0
4.1701800499716573;0.0070710678118654944;0;0;0;0;0
4.1793251816601913;0.0077301045336273626;0;0;0;0;0
4.1884703133487262;0.008314696123025463;0;0;0;0;0
4.1976154450372603;0.0088192126434835424;0;0;0;0;0
4.2067605767257943;0.0092387953251128734;0;0;0;0;0
4.2159057084143292;0.0095694033573221014;0;0;0;0;0
4.2250508401028632;0.0098078528040323049;0;0;0;0;0
4.2341959717913973;0.0099518472667219655;0;0;0;0;0
4.2433411034799322;0.01;0;0;0;0;0
4.2524862351684662;0.0099518472667219655;0;0;0;0;0
4.2616313668570003;0.0098078528040323049;0;0;0;0;0
4.2707764985455352;0.0095694033573220823;0;0;0;0;0
4.2799216302340692;0.0092387953251128734;0;0;0;0;0
4.2890667619226033;0.0088192126434835753;0;0;0;0;0
4.2982118936111382;0.0083146961230254248;0;0;0;0;0
4.3073570252996722;0.0077301045336273626;0;0;0;0;0
4.3165021569882063;0.0070710678118654944;0;0;0;0;0
4.3256472886767412;0.006343932841636396;0;0;0;0;0
4.3347924203652752;0.0055557023301959904;0;0;0;0;0
4.3439375520538093;0.0047139673682599784;0;0;0;0;0
4.3530826837423442;0.0038268343236508694;0;0;0;0;0
4.3622278154308782;0.0029028467725446317;0;0;0;0;0
4.3713729471194132;0.0019509032201611896;0;0;0;0;0
4.3805180788079472;0.00098017140329555033;0;0;0;0;0
4.3896632104964812;-1.7157434800794713e-17;0;0;0;0;0
4.3988083421850162;-0.00098017140329565529;0;0;0;0;0
4.4079534738735502;-0.001950903220161293;0;0;0;0;0
4.4170986055620842;-0.0029028467725445966;0;0;0;0;0
4.4262437372506191;-0.0038268343236509666;0;0;0;0;0
4.4353888689391532;-0.0047139673682600079;0;0;0;0;0
4.4445340006276872;-0.0055557023301960199;0;0;0;0;0
4.4536791323162221;-0.0063439328416365331;0;0;0;0;0
4.4628242640047562;-0.0070710678118655196;0;0;0;0;0
4.4719693956932902;-0.0077301045336273834;0;0;0;0;0
4.4811145273818251;-0.0083146961230254821;0;0;0;0;0
4.4902596590703592;-0.008819212643483558;0;0;0;0;0
4.4994047907588932;-0.0092387953251128595;0;0;0;0;0
4.5085499224474281;-0.0095694033573221118;0;0;0;0;0
4.5176950541359622;-0.0098078528040323118;0;0;0;0;0
4.5268401858244962;-0.0099518472667219689;0;0;0;0;0
4.5359853175130311;-0.01;0;0;0;0;0
4.5451304492015652;-0.009951847266721962;0;0;0;0;0
4.5542755808900992;-0.0098078528040322997;0;0;0;0;0
4.5634207125786341;-0.0095694033573220719;0;0;0;0;0
4.5725658442671682;-0.0092387953251128595;0;0;0;0;0
4.5817109759557022;-0.008819212643483558;0;0;0;0;0
4.5908561076442371;-0.008314696123025404;0;0;0;0;0
4.6000012393327712;-0.00773010453362734;0;0;0;0;0
4.6091463710213052;-0.0070710678118654701;0;0;0;0;0
4.6182915027098401;-0.0063439328416364247;0;0;0;0;0
4.6274366343983742;-0.0055557023301960216;0;0;0;0;0
4.6365817660869082;-0.0047139673682600105;0;0;0;0;0
4.6457268977754431;-0.0038268343236508378;0;0;0;0;0
4.6548720294639772;-0.0029028467725445988;0;0;0;0;0
4.6640171611525112;-0.0019509032201612954;0;0;0;0;0
4.6731622928410461;-0.00098017140329551607;0;0;0;0;0
4.6823074245295802;5.1459924789652375e-17;0;0;0;0;0
4.6914525562181142;0.00098017140329561864;0;0;0;0;0
4.7005976879066491;0.0019509032201613266;0;0;0;0;0
4.7097428195951831;0.0029028467725446296;0;0;0;0;0
4.7188879512837172;0.0038268343236508673;0;0;0;0;0
4.7280330829722521;0.0047139673682600391;0;0;0;0;0
4.7371782146607861;0.0055557023301960485;0;0;0;0;0
4.7463233463493202;0.0063439328416364498;0;0;0;0;0
4.7554684780378551;0.0070710678118654927;0;0;0;0;0
4.7646136097263891;0.0077301045336274059;0;0;0;0;0
4.7737587414149232;0.008314696123025463;0;0;0;0;0
4.7829038731034581;0.0088192126434835736;0;0;0;0;0
4.7920490047919921;0.0092387953251128717;0;0;0;0;0
4.8011941364805262;0.0095694033573220805;0;0;0;0;0
4.8103392681690611;0.0098078528040323187;0;0;0;0;0
4.8194843998575951;0.0099518472667219724;0;0;0;0;0
4.8286295315461292;0.01;0;0;0;0;0
4.8377746632346641;0.0099518472667219655;0;0;0;0;0
4.8469197949231981;0.0098078528040323066;0;0;0;0;0
4.8560649266117322;0.0095694033573220823;0;0;0;0;0
4.8652100583002671;0.0092387953251128457;0;0;0;0;0
4.8743551899888011;0.0088192126434835424;0;0;0;0;0
4.8835003216773352;0.0083146961230254647;0;0;0;0;0
4.8926454533658701;0.0077301045336273192;0;0;0;0;0
4.9017905850544041;0.0070710678118654459;0;0;0;0;0
4.9109357167429382;0.0063439328416364524;0;0;0;0;0
4.9200808484314731;0.005555702330195993;0;0;0;0;0
4.9292259801200071;0.0047139673682599801;0;0;0;0;0
4.9383711118085412;0.0038268343236509375;0;0;0;0;0
4.9475162434970761;0.0029028467725445662;0;0;0;0;0
4.9566613751856101;0.0019509032201612618;0;0;0;0;0
4.9658065068741442;0.00098017140329562341;0;0;0;0;0
4.9749516385626791;-1.4708141202500005e-17;0;0;0;0;0
4.9840967702512131;-0.00098017140329565268;0;0;0;0;0
4.9932419019397472;-0.0019509032201612906;0;0;0;0;0
5.0023870336282821;-0.0029028467725446621;0;0;0;0;0
5.0115321653168161;-0.0038268343236508989;0;0;0;0;0
5.020677297005351;-0.0047139673682600686;0;0;0;0;0
5.0298224286938851;-0.0055557023301960771;0;0;0;0;0
5.0389675603824191;-0.0063439328416364758;0;0;0;0;0
5.048112692070954;-0.007071067811865517;0;0;0;0;0
5.0572578237594881;-0.0077301045336273825;0;0;0;0;0
5.0664029554480221;-0.0083146961230254422;0;0;0;0;0
5.075548087136557;-0.0088192126434835909;0;0;0;0;0
5.0846932188250911;-0.0092387953251128856;0;0;0;0;0
5.0938383505136251;-0.0095694033573220909;0;0;0;0;0
5.10298348220216;-0.0098078528040323118;0;0;0;0;0
5.1121286138906941;-0.0099518472667219759;0;0;0;0;0
5.1212737455792281;-0.01;0;0;0;0;0
5.130418877267763;-0.009951847266721962;0;0;0;0;0
5.1395640089562971;-0.0098078528040322997;0;0;0;0;0
5.1487091406448311;-0.0095694033573220927;0;0;0;0;0
5.157854272333366;-0.0092387953251128335;0;0;0;0;0
5.1669994040219001;-0.0088192126434835268;0;0;0;0;0
5.1761445357104341;-0.0083146961230254456;0;0;0;0;0
5.185289667398969;-0.0077301045336273426;0;0;0;0;0
5.1944347990875031;-0.007071067811865471;0;0;0;0;0
5.2035799307760371;-0.0063439328416364264;0;0;0;0;0
5.212725062464572;-0.0055557023301959652;0;0;0;0;0
5.221870194153106;-0.0047139673682599498;0;0;0;0;0
5.2310153258416401;-0.0038268343236509059;0;0;0;0;0
5.240160457530175;-0.0029028467725445333;0;0;0;0;0
5.249305589218709;-0.0019509032201612281;0;0;0;0;0
5.2584507209072431;-0.00098017140329558937;0;0;0;0;0
5.267595852595778;4.9010631191357662e-17;0;0;0;0;0
5.276740984284312;0.00098017140329561604;0;0;0;0;0
5.2858861159728461;0.0019509032201612544;0;0;0;0;0
5.295031247661381;0.002902846772544695;0;0;0;0;0
5.304176379349915;0.0038268343236509306;0;0;0;0;0
5.3133215110384491;0.0047139673682599741;0;0;0;0;0
5.322466642726984;0.0055557023301960459;0;0;0;0;0
5.331611774415518;0.0063439328416365027;0;0;0;0;0
5.3407569061040521;0.0070710678118654918;0;0;0;0;0
5.349902037792587;0.0077301045336274042;0;0;0;0;0
5.359047169481121;0.0083146961230254612;0;0;0;0;0
5.3681923011696551;0.0088192126434835389;0;0;0;0;0
5.37733743285819;0.0092387953251128994;0;0;0;0;0
5.386482564546724;0.0095694033573221014;0;0;0;0;0
5.3956276962352581;0.0098078528040323049;0;0;0;0;0
5.404772827923793;0.0099518472667219724;0;0;0;0;0
5.413917959612327;0.01;0;0;0;0;0
5.4230630913008611;0.0099518472667219655;0;0;0;0;0
5.432208222989396;0.0098078528040322927;0;0;0;0;0
5.44135335467793;0.0095694033573220823;0;0;0;0;0
5.4504984863664641;0.0092387953251128734;0;0;0;0;0
5.459643618054999;0.0088192126434835112;0;0;0;0;0
5.468788749743533;0.0083146961230254265;0;0;0;0;0
5.4779338814320671;0.007730104533627366;0;0;0;0;0
5.487079013120602;0.0070710678118654485;0;0;0;0;0
5.496224144809136;0.006343932841636455;0;0;0;0;0
5.5053692764976701;0.0055557023301960537;0;0;0;0;0
5.514514408186205;0.0047139673682599194;0;0;0;0;0
5.523659539874739;0.0038268343236508742;0;0;0;0;0
5.532804671563273;0.0029028467725446361;0;0;0;0;0
5.541949803251808;0.0019509032201612641;0;0;0;0;0
5.551094934940342;0.0009801714032955551;0;0;0;0;0
5.560240066628876;-1.22588476042053e-17;0;0;0;0;0
5.569385198317411;-0.00098017140329565008;0;0;0;0;0
5.578530330005945;-0.001950903220161288;0;0;0;0;0
5.587675461694479;-0.0029028467725445918;0;0;0;0;0
5.596820593383014;-0.0038268343236509622;0;0;0;0;0
5.605965725071548;-0.0047139673682600036;0;0;0;0;0
5.615110856760082;-0.0055557023301960155;0;0;0;0;0
5.624255988448617;-0.0063439328416364741;0;0;0;0;0
5.633401120137151;-0.0070710678118654649;0;0;0;0;0
5.642546251825685;-0.0077301045336273808;0;0;0;0;0
5.65169138351422;-0.0083146961230254803;0;0;0;0;0
5.660836515202754;-0.0088192126434835545;0;0;0;0;0
5.669981646891288;-0.0092387953251128561;0;0;0;0;0
5.679126778579823;-0.00956940335732211;0;0;0;0;0
5.688271910268357;-0.0098078528040323118;0;0;0;0;0
5.6974170419568919;-0.0099518472667219759;0;0;0;0;0
5.706562173645426;-0.01;0;0;0;0;0
5.71570730533396;-0.0099518472667219689;0;0;0;0;0
5.7248524370224949;-0.0098078528040322875;0;0;0;0;0
5.7339975687110289;-0.0095694033573220736;0;0;0;0;0
5.743142700399563;-0.0092387953251128613;0;0;0;0;0
5.7522878320880979;-0.0088192126434835268;0;0;0;0;0
5.7614329637766319;-0.0083146961230254075;0;0;0;0;0
5.770578095465166;-0.0077301045336273435;0;0;0;0;0
5.7797232271537009;-0.0070710678118654233;0;0;0;0;0
5.7888683588422349;-0.0063439328416364281;0;0;0;0;0
5.798013490530769;-0.0055557023301960259;0;0;0;0;0
5.8071586222193039;-0.0047139673682598891;0;0;0;0;0
5.8163037539078379;-0.0038268343236508425;0;0;0;0;0
5.825448885596372;-0.0029028467725446035;0;0;0;0;0
5.8345940172849069;-0.0019509032201612303;0;0;0;0;0
5.8437391489734409;-0.00098017140329559175;0;0;0;0;0
5.852884280661975;-2.4492935982947065e-17;0;0;0;0;0
5.8620294123505099;0.00098017140329568434;0;0;0;0;0
5.8711745440390439;0.0019509032201613216;0;0;0;0;0
5.880319675727578;0.0029028467725446244;0;0;0;0;0
5.8894648074161129;0.0038268343236509939;0;0;0;0;0
5.8986099391046469;0.0047139673682600339;0;0;0;0;0
5.907755070793181;0.0055557023301960442;0;0;0;0;0
5.9169002024817159;0.0063439328416365001;0;0;0;0;0
5.9260453341702499;0.0070710678118654892;0;0;0;0;0
5.935190465858784;0.0077301045336273582;0;0;0;0;0
5.9443355975473189;0.0083146961230254994;0;0;0;0;0
5.9534807292358529;0.0088192126434835719;0;0;0;0;0
5.962625860924387;0.0092387953251128439;0;0;0;0;0
5.9717709926129219;0.0095694033573220996;0;0;0;0;0
5.9809161243014559;0.0098078528040323049;0;0;0;0;0
5.99006125598999;0.0099518472667219655;0;0;0;0;0
5.9992063876785249;0.01;0;0;0;0;0
6.0083515193670589;0.0099518472667219655;0;0;0;0;0
6.0174966510555929;0.0098078528040323083;0;0;0;0;0
6.0266417827441279;0.0095694033573220632;0;0;0;0;0
6.0357869144326619;0.0092387953251128491;0;0;0;0;0
6.0449320461211959;0.0088192126434835458;0;0;0;0;0
6.0540771778097309;0.0083146961230253884;0;0;0;0;0
6.0632223094982649;0.0077301045336273209;0;0;0;0;0
6.0723674411867989;0.0070710678118654493;0;0;0;0;0
6.0815125728753339;0.0063439328416364576;0;0;0;0;0
6.0906577045638679;0.0055557023301959383;0;0;0;0;0
6.0998028362524019;0.0047139673682599212;0;0;0;0;0
6.1089479679409369;0.0038268343236508764;0;0;0;0;0
6.1180930996294709;0.0029028467725446391;0;0;0;0;0
6.1272382313180049;0.0019509032201613361;0;0;0;0;0
6.1363833630065399;0.00098017140329555771;0;0;0;0;0
6.1455284946950739;-9.8095540059105926e-18;0;0;0;0;0
6.1546736263836079;-0.00098017140329557701;0;0;0;0;0
6.1638187580721429;-0.0019509032201613554;0;0;0;0;0
6.1729638897606769;-0.0029028467725446573;0;0;0;0;0
6.1821090214492109;-0.0038268343236508946;0;0;0;0;0
6.1912541531377459;-0.0047139673682600643;0;0;0;0;0
6.2003992848262799;-0.0055557023301960728;0;0;0;0;0
6.2095444165148139;-0.0063439328416364715;0;0;0;0;0
6.2186895482033488;-0.0070710678118655638;0;0;0;0;0
6.2278346798918829;-0.0077301045336274242;0;0;0;0;0
6.2369798115804169;-0.0083146961230254786;0;0;0;0;0
6.2461249432689518;-0.0088192126434835545;0;0;0;0;0
6.2552700749574859;-0.0092387953251128561;0;0;0;0;0
6.2644152066460199;-0.0095694033573220684;0;0;0;0;0
6.2735603383345548;-0.0098078528040323118;0;0;0;0;0
6.2827054700230889;-0.0099518472667219689;0;0;0;0;0
6.2918506017116229;-0.01;0;0;0;0;0
6.3009957334001578;-0.009951847266721962;0;0;0;0;0
6.3101408650886919;-0.0098078528040323014;0;0;0;0;0
6.3192859967772259;-0.0095694033573220944;0;0;0;0;0
6.3284311284657608;-0.0092387953251128353;0;0;0;0;0
6.3375762601542949;-0.0088192126434835285;0;0;0;0;0
6.3467213918428289;-0.0083146961230254491;0;0;0;0;0
6.3558665235313638;-0.0077301045336273001;0;0;0;0;0
6.3650116552198979;-0.007071067811865425;0;0;0;0;0
6.3741567869084328;-0.0063439328416364307;0;0;0;0;0
6.3833019185969668;-0.0055557023301960277;0;0;0;0;0
6.3924470502855009;-0.0047139673682600174;0;0;0;0;0
6.4015921819740358;-0.0038268343236508447;0;0;0;0;0
6.4107373136625698;-0.0029028467725446057;0;0;0;0;0
6.4198824453511039;-0.0019509032201613025;0;0;0;0;0
6.4290275770396388;-0.00098017140329552345;0;0;0;0;0
6.4381727087281728;4.4112043994768248e-17;0;0;0;0;0
6.4473178404167069;0.00098017140329561127;0;0;0;0;0
6.4564629721052418;0.001950903220161389;0;0;0;0;0
6.4656081037937758;0.0029028467725446907;0;0;0;0;0
6.4747532354823099;0.0038268343236509262;0;0;0;0;0
6.4838983671708448;0.0047139673682600946;0;0;0;0;0
6.4930434988593788;0.0055557023301961014;0;0;0;0;0
6.5021886305479129;0.0063439328416364984;0;0;0;0;0
6.5113337622364478;0.0070710678118654866;0;0;0;0;0
6.5204788939249818;0.0077301045336273556;0;0;0;0;0
6.5296240256135158;0.0083146961230254977;0;0;0;0;0
6.5387691573020508;0.0088192126434835701;0;0;0;0;0
6.5479142889905848;0.0092387953251128682;0;0;0;0;0
6.5570594206791188;0.0095694033573220788;0;0;0;0;0
6.5662045523676538;0.009807852804032317;0;0;0;0;0
6.5753496840561878;0.0099518472667219724;0;0;0;0;0
6.5844948157447218;0.01;0;0;0;0;0
6.5936399474332568;0.0099518472667219603;0;0;0;0;0
6.6027850791217908;0.0098078528040322945;0;0;0;0;0
6.6119302108103248;0.009569403357322084;0;0;0;0;0
6.6210753424988598;0.0092387953251128214;0;0;0;0;0
6.6302204741873938;0.0088192126434835129;0;0;0;0;0
6.6393656058759278;0.00831469612302543;0;0;0;0;0
6.6485107375644628;0.0077301045336273678;0;0;0;0;0
6.6576558692529968;0.0070710678118654008;0;0;0;0;0
6.6668010009415308;0.0063439328416364038;0;0;0;0;0
6.6759461326300658;0.0055557023301959999;0;0;0;0;0
6.6850912643185998;0.0047139673682599862;0;0;0;0;0
6.6942363960071338;0.003826834323650944;0;0;0;0;0
6.7033815276956688;0.0029028467725445727;0;0;0;0;0
6.7125266593842028;0.0019509032201612689;0;0;0;0;0
6.7216717910727368;0.00098017140329563078;0;0;0;0;0
6.7308169227612717;-7.8414533983625913e-17;0;0;0;0;0
6.7399620544498058;-0.00098017140329564531;0;0;0;0;0
6.7491071861383398;-0.0019509032201612834;0;0;0;0;0
6.7582523178268747;-0.0029028467725447232;0;0;0;0;0
6.7673974495154088;-0.0038268343236509579;0;0;0;0;0
6.7765425812039428;-0.0047139673682599992;0;0;0;0;0
6.7856877128924777;-0.0055557023301961292;0;0;0;0;0
6.7948328445810118;-0.0063439328416365253;0;0;0;0;0
6.8039779762695458;-0.0070710678118655118;0;0;0;0;0
6.8131231079580807;-0.0077301045336273782;0;0;0;0;0
6.8222682396466148;-0.0083146961230254387;0;0;0;0;0
6.8314133713351488;-0.0088192126434835198;0;0;0;0;0
6.8405585030236837;-0.0092387953251128821;0;0;0;0;0
6.8497036347122178;-0.0095694033573220892;0;0;0;0;0
6.8588487664007518;-0.0098078528040322962;0;0;0;0;0
6.8679938980892867;-0.0099518472667219759;0;0;0;0;0
6.8771390297778208;-0.01;0;0;0;0;0
6.8862841614663548;-0.0099518472667219707;0;0;0;0;0
6.8954292931548897;-0.0098078528040322875;0;0;0;0;0
6.9045744248434238;-0.0095694033573220736;0;0;0;0;0
6.9137195565319578;-0.009238795325112863;0;0;0;0;0
6.9228646882204927;-0.0088192126434834955;0;0;0;0;0
6.9320098199090268;-0.0083146961230254109;0;0;0;0;0
6.9411549515975608;-0.007730104533627347;0;0;0;0;0
6.9503000832860957;-0.0070710678118654771;0;0;0;0;0
6.9594452149746298;-0.0063439328416364871;0;0;0;0;0
6.9685903466631638;-0.0055557023301959704;0;0;0;0;0
6.9777354783516987;-0.0047139673682599567;0;0;0;0;0
6.9868806100402328;-0.0038268343236509124;0;0;0;0;0
6.9960257417287668;-0.002902846772544676;0;0;0;0;0
7.0051708734173017;-0.0019509032201612353;0;0;0;0;0
7.0143160051058357;-0.00098017140329559652;0;0;0;0;0
7.0234611367943707;1.1271702397248355e-16;0;0;0;0;0
7.0326062684829047;0.00098017140329567957;0;0;0;0;0
7.0417514001714387;0.0019509032201613168;0;0;0;0;0
7.0508965318599737;0.0029028467725447562;0;0;0;0;0
7.0600416635485077;0.0038268343236509896;0;0;0;0;0
7.0691867952370417;0.0047139673682600296;0;0;0;0;0
7.0783319269255767;0.0055557023301960398;0;0;0;0;0
7.0874770586141107;0.006343932841636442;0;0;0;0;0
7.0966221903026447;0.0070710678118655361;0;0;0;0;0
7.1057673219911797;0.007730104533627399;0;0;0;0;0
7.1149124536797137;0.0083146961230254578;0;0;0;0;0
7.1240575853682477;0.0088192126434835354;0;0;0;0;0
7.1332027170567827;0.009238795325112896;0;0;0;0;0
7.1423478487453167;0.0095694033573220979;0;0;0;0;0
7.1514929804338507;0.0098078528040323031;0;0;0;0;0
7.1606381121223857;0.0099518472667219776;0;0;0;0;0
7.1697832438109197;0.01;0;0;0;0;0
7.1789283754994537;0.0099518472667219672;0;0;0;0;0
7.1880735071879887;0.0098078528040322806;0;0;0;0;0
7.1972186388765227;0.0095694033573220632;0;0;0;0;0
7.2063637705650567;0.0092387953251128509;0;0;0;0;0
7.2155089022535916;0.0088192126434834799;0;0;0;0;0
7.2246540339421257;0.0083146961230253918;0;0;0;0;0
7.2337991656306597;0.0077301045336273244;0;0;0;0;0
7.2429442973191946;0.0070710678118654528;0;0;0;0;0
7.2520894290077287;0.0063439328416364602;0;0;0;0;0
7.2612345606962627;0.0055557023301960606;0;0;0;0;0
7.2703796923847976;0.0047139673682599264;0;0;0;0;0
7.2795248240733317;0.0038268343236508807;0;0;0;0;0
7.2886699557618657;0.0029028467725446434;0;0;0;0;0
7.2978150874504006;0.0019509032201612015;0;0;0;0;0
7.3069602191389347;0.00098017140329556248;0;0;0;0;0
7.3161053508274687;-4.9109668093211799e-18;0;0;0;0;0
7.3252504825160036;-0.00098017140329571362;0;0;0;0;0
7.3343956142045377;-0.0019509032201613504;0;0;0;0;0
7.3435407458930717;-0.002902846772544653;0;0;0;0;0
7.3526858775816066;-0.0038268343236510212;0;0;0;0;0
7.3618310092701407;-0.0047139673682600599;0;0;0;0;0
7.3709761409586747;-0.0055557023301960684;0;0;0;0;0
7.3801212726472096;-0.006343932841636468;0;0;0;0;0
7.3892664043357437;-0.0070710678118654606;0;0;0;0;0
7.3984115360242777;-0.0077301045336273314;0;0;0;0;0
7.4075566677128126;-0.0083146961230254751;0;0;0;0;0
7.4167017994013467;-0.0088192126434835511;0;0;0;0;0
7.4258469310898807;-0.0092387953251128543;0;0;0;0;0
7.4349920627784156;-0.0095694033573221083;0;0;0;0;0
7.4441371944669497;-0.0098078528040323101;0;0;0;0;0
7.4532823261554837;-0.0099518472667219689;0;0;0;0;0
7.4624274578440186;-0.01;0;0;0;0;0
7.4715725895325527;-0.0099518472667219637;0;0;0;0;0
7.4807177212210867;-0.0098078528040323014;0;0;0;0;0
7.4898628529096216;-0.0095694033573220545;0;0;0;0;0
7.4990079845981557;-0.009238795325112837;0;0;0;0;0
7.5081531162866897;-0.008819212643483532;0;0;0;0;0
7.5172982479752246;-0.0083146961230254508;0;0;0;0;0
7.5264433796637586;-0.0077301045336273036;0;0;0;0;0
7.5355885113522927;-0.0070710678118654285;0;0;0;0;0
7.5447336430408276;-0.0063439328416364342;0;0;0;0;0
7.5538787747293616;-0.005555702330196032;0;0;0;0;0
7.5630239064178957;-0.0047139673682600209;0;0;0;0;0
7.5721690381064306;-0.0038268343236508491;0;0;0;0;0
7.5813141697949646;-0.0029028467725446105;0;0;0;0;0
7.5904593014834987;-0.0019509032201613073;0;0;0;0;0
7.5996044331720336;-0.00098017140329552843;0;0;0;0;0
7.6087495648605676;3.9213456798178833e-17;0;0;0;0;0
7.6178946965491017;0.00098017140329560628;0;0;0;0;0
7.6270398282376366;0.0019509032201613845;0;0;0;0;0
7.6361849599261706;0.0029028467725446855;0;0;0;0;0
7.6453300916147047;0.0038268343236509219;0;0;0;0;0
7.6544752233032396;0.0047139673682600903;0;0;0;0;0
7.6636203549917736;0.0055557023301960971;0;0;0;0;0
7.6727654866803077;0.0063439328416364949;0;0;0;0;0
7.6819106183688426;0.007071067811865484;0;0;0;0;0
7.6910557500573766;0.0077301045336273522;0;0;0;0;0
7.7002008817459116;0.0083146961230254942;0;0;0;0;0
7.7093460134344456;0.0088192126434835684;0;0;0;0;0
7.7184911451229796;0.0092387953251128682;0;0;0;0;0
7.7276362768115145;0.0095694033573221187;0;0;0;0;0
7.7367814085000486;0.009807852804032317;0;0;0;0;0
7.7459265401885826;0.0099518472667219724;0;0;0;0;0
7.7550716718771175;0.01;0;0;0;0;0
7.7642168035656516;0.0099518472667219603;0;0;0;0;0
7.7733619352541856;0.0098078528040322945;0;0;0;0;0
7.7825070669427205;0.0095694033573220441;0;0;0;0;0
7.7916521986312546;0.0092387953251128248;0;0;0;0;0
7.8007973303197886;0.0088192126434835146;0;0;0;0;0
7.8099424620083235;0.0083146961230254317;0;0;0;0;0
7.8190875936968576;0.0077301045336273713;0;0;0;0;0
7.8282327253853916;0.0070710678118655048;0;0;0;0;0
7.8373778570739265;0.0063439328416364073;0;0;0;0;0
7.8465229887624606;0.0055557023301960034;0;0;0;0;0
7.8556681204509946;0.0047139673682599905;0;0;0;0;0
7.8648132521395295;0.0038268343236508174;0;0;0;0;0
7.8739583838280636;0.0029028467725445779;0;0;0;0;0
7.8831035155165976;0.0019509032201612737;0;0;0;0;0
7.8922486472051325;0.00098017140329549417;0;0;0;0;0
7.9013937788936666;-7.3515946787036487e-17;0;0;0;0;0
7.9105389105822006;-0.00098017140329564054;0;0;0;0;0
7.9196840422707355;-0.0019509032201614179;0;0;0;0;0
7.9288291739592696;-0.0029028467725447185;0;0;0;0;0
7.9379743056478036;-0.0038268343236509536;0;0;0;0;0
7.9471194373363385;-0.0047139673682599957;0;0;0;0;0
7.9562645690248726;-0.0055557023301960077;0;0;0;0;0
7.9654097007134066;-0.0063439328416365218;0;0;0;0;0
7.9745548324019415;-0.0070710678118655083;0;0;0;0;0
7.9836999640904756;-0.0077301045336273747;0;0;0;0;0
7.9928450957790096;-0.0083146961230254352;0;0;0;0;0
8.0019902274675445;-0.008819212643483584;0;0;0;0;0
8.0111353591560786;-0.0092387953251128804;0;0;0;0;0
8.0202804908446126;-0.0095694033573220875;0;0;0;0;0
8.0294256225331466;-0.0098078528040322962;0;0;0;0;0
8.0385707542216824;-0.009951847266721988;0;0;0;0;0
8.0477158859102165;-0.01;0;0;0;0;0
8.0568610175987505;-0.0099518472667219568;0;0;0;0;0
8.0660061492872845;-0.0098078528040322875;0;0;0;0;0
8.0751512809758186;-0.0095694033573220771;0;0;0;0;0
8.0842964126643526;-0.0092387953251128647;0;0;0;0;0
8.0934415443528884;-0.008819212643483499;0;0;0;0;0
8.1025866760414225;-0.0083146961230254144;0;0;0;0;0
8.1117318077299565;-0.0077301045336273504;0;0;0;0;0
8.1208769394184905;-0.0070710678118654805;0;0;0;0;0
8.1300220711070246;-0.0063439328416364906;0;0;0;0;0
8.1391672027955586;-0.0055557023301960927;0;0;0;0;0
8.1483123344840944;-0.0047139673682598353;0;0;0;0;0
8.1574574661726285;-0.0038268343236507857;0;0;0;0;0
8.1666025978611625;-0.002902846772544545;0;0;0;0;0
8.1757477295496965;-0.0019509032201612401;0;0;0;0;0
8.1848928612382306;-0.00098017140329560151;0;0;0;0;0
8.1940379929267646;-3.4290110376125888e-17;0;0;0;0;0
8.2031831246153004;0.00098017140329567458;0;0;0;0;0
8.2123282563038345;0.0019509032201614515;0;0;0;0;0
8.2214733879923685;0.002902846772544751;0;0;0;0;0
8.2306185196809025;0.0038268343236509852;0;0;0;0;0
8.2397636513694366;0.0047139673682600252;0;0;0;0;0
8.2489087830579706;0.0055557023301960363;0;0;0;0;0
8.2580539147465064;0.006343932841636547;0;0;0;0;0
8.2671990464350404;0.0070710678118655326;0;0;0;0;0
8.2763441781235745;0.0077301045336273964;0;0;0;0;0
8.2854893098121085;0.0083146961230254543;0;0;0;0;0
8.2946344415006426;0.0088192126434835337;0;0;0;0;0
8.3037795731891766;0.0092387953251128387;0;0;0;0;0
8.3129247048777124;0.0095694033573221378;0;0;0;0;0
8.3220698365662464;0.0098078528040323309;0;0;0;0;0
8.3312149682547805;0.0099518472667219776;0;0;0;0;0
8.3403600999433145;0.01;0;0;0;0;0
8.3495052316318485;0.0099518472667219672;0;0;0;0;0
8.3586503633203826;0.0098078528040323083;0;0;0;0;0
8.3677954950089184;0.0095694033573220667;0;0;0;0;0
8.3769406266974524;0.0092387953251128526;0;0;0;0;0
8.3860857583859865;0.0088192126434835493;0;0;0;0;0
8.3952308900745205;0.0083146961230254734;0;0;0;0;0
8.4043760217630545;0.0077301045336273279;0;0;0;0;0
8.4135211534515886;0.0070710678118654563;0;0;0;0;0
8.4226662851401244;0.0063439328416363544;0;0;0;0;0
8.4318114168286584;0.0055557023301959461;0;0;0;0;0
8.4409565485171925;0.0047139673682599307;0;0;0;0;0
8.4501016802057265;0.0038268343236508851;0;0;0;0;0
8.4592468118942605;0.0029028467725446478;0;0;0;0;0
8.4683919435827946;0.0019509032201613459;0;0;0;0;0
8.4775370752713304;0.00098017140329542587;0;0;0;0;0
8.4866822069598644;-1.4212092676475179e-16;0;0;0;0;0
8.4958273386483985;-0.00098017140329570884;0;0;0;0;0
8.5049724703369325;-0.0019509032201613459;0;0;0;0;0
8.5141176020254665;-0.0029028467725446482;0;0;0;0;0
8.5232627337140006;-0.0038268343236508851;0;0;0;0;0
8.5324078654025364;-0.0047139673682600556;0;0;0;0;0
8.5415529970910704;-0.005555702330196065;0;0;0;0;0
8.5506981287796044;-0.0063439328416364637;0;0;0;0;0
8.5598432604681385;-0.0070710678118654563;0;0;0;0;0
8.5689883921566725;-0.0077301045336273279;0;0;0;0;0
8.5781335238452066;-0.0083146961230253953;0;0;0;0;0
8.5872786555337424;-0.008819212643483617;0;0;0;0;0
8.5964237872222764;-0.0092387953251129064;0;0;0;0;0
8.6055689189108104;-0.0095694033573221066;0;0;0;0;0
8.6147140505993445;-0.0098078528040323083;0;0;0;0;0
8.6238591822878785;-0.0099518472667219672;0;0;0;0;0
8.6330043139764125;-0.01;0;0;0;0;0
8.6421494456649484;-0.0099518472667219637;0;0;0;0;0
8.6512945773534824;-0.0098078528040322754;0;0;0;0;0
8.6604397090420164;-0.0095694033573220563;0;0;0;0;0
8.6695848407305505;-0.0092387953251128387;0;0;0;0;0
8.6787299724190845;-0.0088192126434835337;0;0;0;0;0
8.6878751041076185;-0.0083146961230254543;0;0;0;0;0
8.6970202357961544;-0.0077301045336273053;0;0;0;0;0
8.7061653674846884;-0.0070710678118654328;0;0;0;0;0
8.7153104991732224;-0.0063439328416364385;0;0;0;0;0
8.7244556308617565;-0.0055557023301960363;0;0;0;0;0
8.7336007625502905;-0.0047139673682600252;0;0;0;0;0
8.7427458942388263;-0.0038268343236507224;0;0;0;0;0
8.7518910259273603;-0.0029028467725444791;0;0;0;0;0
8.7610361576158944;-0.0019509032201611729;0;0;0;0;0
8.7701812893044284;-0.0009801714032955332;0;0;0;0;0
8.7793264209929625;3.4314869601589425e-17;0;0;0;0;0
8.7884715526814965;0.00098017140329560151;0;0;0;0;0
8.7976166843700323;0.0019509032201613793;0;0;0;0;0
8.8067618160585663;0.0029028467725446812;0;0;0;0;0
8.8159069477471004;0.0038268343236509171;0;0;0;0;0
8.8250520794356344;0.0047139673682599602;0;0;0;0;0
8.8341972111241684;0.0055557023301959756;0;0;0;0;0
8.8433423428127025;0.0063439328416364906;0;0;0;0;0
8.8524874745012383;0.0070710678118655812;0;0;0;0;0
8.8616326061897723;0.0077301045336274398;0;0;0;0;0
8.8707777378783064;0.0083146961230254925;0;0;0;0;0
8.8799228695668404;0.0088192126434835667;0;0;0;0;0
8.8890680012553744;0.0092387953251128647;0;0;0;0;0
8.8982131329439085;0.0095694033573220771;0;0;0;0;0
8.9073582646324443;0.009807852804032343;0;0;0;0;0
8.9165033963209783;0.0099518472667219846;0;0;0;0;0
8.9256485280095124;0.01;0;0;0;0;0
8.9347936596980464;0.0099518472667219603;0;0;0;0;0
8.9439387913865804;0.0098078528040322962;0;0;0;0;0
8.9530839230751145;0.0095694033573220875;0;0;0;0;0
8.9622290547636503;0.0092387953251128266;0;0;0;0;0
8.9713741864521843;0.0088192126434835181;0;0;0;0;0
8.9805193181407184;0.0083146961230254352;0;0;0;0;0
8.9896644498292524;0.0077301045336273747;0;0;0;0;0
8.9988095815177864;0.0070710678118655083;0;0;0;0;0
9.0079547132063205;0.0063439328416365218;0;0;0;0;0
9.0170998448948563;0.0055557023301958898;0;0;0;0;0
9.0262449765833903;0.00471396736825987;0;0;0;0;0
9.0353901082719243;0.0038268343236508217;0;0;0;0;0
9.0445352399604584;0.0029028467725445823;0;0;0;0;0
9.0536803716489924;0.0019509032201612787;0;0;0;0;0
9.0628255033375265;0.00098017140329564054;0;0;0;0;0
9.0719706350260623;-6.8617359590447072e-17;0;0;0;0;0
9.0811157667145963;-0.00098017140329563555;0;0;0;0;0
9.0902608984031303;-0.0019509032201614129;0;0;0;0;0
9.0994060300916644;-0.0029028467725447137;0;0;0;0;0
9.1085511617801984;-0.0038268343236509488;0;0;0;0;0
9.1176962934687324;-0.0047139673682599905;0;0;0;0;0
9.1268414251572683;-0.0055557023301961222;0;0;0;0;0
9.1359865568458023;-0.0063439328416365175;0;0;0;0;0
9.1451316885343363;-0.0070710678118655048;0;0;0;0;0
9.1542768202228704;-0.0077301045336273713;0;0;0;0;0
9.1634219519114044;-0.0083146961230254317;0;0;0;0;0
9.1725670835999384;-0.0088192126434835146;0;0;0;0;0
9.1817122152884743;-0.0092387953251129324;0;0;0;0;0
9.1908573469770083;-0.0095694033573221274;0;0;0;0;0
9.2000024786655423;-0.0098078528040323222;0;0;0;0;0
9.2091476103540764;-0.0099518472667219741;0;0;0;0;0
9.2182927420426104;-0.01;0;0;0;0;0
9.2274378737311444;-0.0099518472667219724;0;0;0;0;0
9.2365830054196802;-0.0098078528040322892;0;0;0;0;0
9.2457281371082143;-0.0095694033573220771;0;0;0;0;0
9.2548732687967483;-0.0092387953251128682;0;0;0;0;0
9.2640184004852824;-0.0088192126434835684;0;0;0;0;0
9.2731635321738164;-0.0083146961230254942;0;0;0;0;0
9.2823086638623504;-0.0077301045336273522;0;0;0;0;0
9.2914537955508862;-0.0070710678118653834;0;0;0;0;0
9.3005989272394203;-0.0063439328416363848;0;0;0;0;0
9.3097440589279543;-0.0055557023301959782;0;0;0;0;0
9.3188891906164883;-0.0047139673682599645;0;0;0;0;0
9.3280343223050224;-0.0038268343236509219;0;0;0;0;0
9.3371794539935564;-0.0029028467725446855;0;0;0;0;0
9.3463245856820922;-0.0019509032201611054;0;0;0;0;0
9.3554697173706263;-0.0009801714032954649;0;0;0;0;0
9.3646148490591603;1.0291984957930475e-16;0;0;0;0;0
9.3737599807476943;0.00098017140329566981;0;0;0;0;0
9.3829051124362284;0.0019509032201613075;0;0;0;0;0
9.3920502441247642;0.0029028467725447466;0;0;0;0;0
9.4011953758132982;0.0038268343236509805;0;0;0;0;0
9.4103405075018323;0.0047139673682600209;0;0;0;0;0
9.4194856391903663;0.005555702330196032;0;0;0;0;0
9.4286307708789003;0.0063439328416364342;0;0;0;0;0
9.4377759025674344;0.0070710678118654285;0;0;0;0;0
9.4469210342559702;0.0077301045336274831;0;0;0;0;0
9.4560661659445042;0.0083146961230255306;0;0;0;0;0
9.4652112976330383;0.0088192126434835979;0;0;0;0;0
9.4743564293215723;0.0092387953251128925;0;0;0;0;0
9.4835015610101063;0.0095694033573220962;0;0;0;0;0
9.4926466926986404;0.0098078528040323014;0;0;0;0;0
9.5017918243871762;0.0099518472667219776;0;0;0;0;0
9.5109369560757102;0.01;0;0;0;0;0
9.5200820877642442;0.0099518472667219689;0;0;0;0;0
9.5292272194527783;0.0098078528040322823;0;0;0;0;0
9.5383723511413123;0.0095694033573220667;0;0;0;0;0
9.5475174828298464;0.0092387953251128543;0;0;0;0;0
9.5566626145183822;0.0088192126434834851;0;0;0;0;0
9.5658077462069162;0.0083146961230253971;0;0;0;0;0
9.5749528778954502;0.0077301045336273314;0;0;0;0;0
9.5840980095839843;0.0070710678118654606;0;0;0;0;0
9.5932431412725183;0.006343932841636468;0;0;0;0;0
9.6023882729610524;0.0055557023301960684;0;0;0;0;0
9.6115334046495882;0.0047139673682598093;0;0;0;0;0
9.6206785363381222;0.0038268343236507584;0;0;0;0;0
9.6298236680266562;0.0029028467725445168;0;0;0;0;0
9.6389687997151903;0.0019509032201612112;0;0;0;0;0
9.6481139314037243;0.00098017140329557224;0;0;0;0;0
9.6572590630922583;4.8862075838576457e-18;0;0;0;0;0
9.6664041947807942;-0.00098017140329570386;0;0;0;0;0
9.6755493264693282;-0.0019509032201613411;0;0;0;0;0
9.6846944581578622;-0.0029028467725446434;0;0;0;0;0
9.6938395898463963;-0.0038268343236508807;0;0;0;0;0
9.7029847215349303;-0.0047139673682599264;0;0;0;0;0
9.7121298532234643;-0.0055557023301960606;0;0;0;0;0
9.7212749849120001;-0.0063439328416365704;0;0;0;0;0
9.7304201166005342;-0.0070710678118655534;0;0;0;0;0
9.7395652482890682;-0.0077301045336274146;0;0;0;0;0
9.7487103799776023;-0.0083146961230254699;0;0;0;0;0
9.7578555116661363;-0.0088192126434835476;0;0;0;0;0
9.7670006433546703;-0.0092387953251128509;0;0;0;0;0
9.7761457750432061;-0.0095694033573221465;0;0;0;0;0
9.7852909067317402;-0.0098078528040323361;0;0;0;0;0
9.7944360384202742;-0.0099518472667219811;0;0;0;0;0
9.8035811701088083;-0.01;0;0;0;0;0
9.8127263017973423;-0.0099518472667219655;0;0;0;0;0
9.8218714334858763;-0.0098078528040323031;0;0;0;0;0
9.8310165651744121;-0.009569403357322058;0;0;0;0;0
9.8401616968629462;-0.0092387953251128405;0;0;0;0;0
9.8493068285514802;-0.0088192126434835354;0;0;0;0;0
9.8584519602400142;-0.0083146961230254578;0;0;0;0;0
