#Time;LinearAccX;LinearAccY;LinearAccZ;AngularAccX;AngularAccY;AngularAccZ
0;0;0;0;0;0;0
0.015904312808798327;0.00098017140329560628;0;0;0;0;0
0.031808625617596654;0.0019509032201612828;0;0;0;0;0
0.047712938426394985;0.0029028467725446239;0;0;0;0;0
0.063617251235193309;0.0038268343236508981;0;0;0;0;0
0.079521564043991633;0.0047139673682599767;0;0;0;0;0
0.09542587685278997;0.0055557023301960233;0;0;0;0;0
0.11133018966158829;0.0063439328416364559;0;0;0;0;0
0.12723450247038662;0.0070710678118654762;0;0;0;0;0
0.14313881527918496;0.0077301045336273704;0;0;0;0;0
0.15904312808798327;0.0083146961230254526;0;0;0;0;0
0.1749474408967816;0.0088192126434835511;0;0;0;0;0
0.19085175370557994;0.0092387953251128682;0;0;0;0;0
0.20675606651437825;0.0095694033573220892;0;0;0;0;0
0.22266037932317659;0.0098078528040323049;0;0;0;0;0
0.2385646921319749;0.0099518472667219689;0;0;0;0;0
0.25446900494077324;0.01;0;0;0;0;0
0.27037331774957157;0.0099518472667219689;0;0;0;0;0
0.28627763055836991;0.0098078528040323049;0;0;0;0;0
0.30218194336716819;0.0095694033573220892;0;0;0;0;0
0.31808625617596653;0.0092387953251128682;0;0;0;0;0
0.33399056898476487;0.0088192126434835511;0;0;0;0;0
0.34989488179356321;0.0083146961230254508;0;0;0;0;0
0.36579919460236154;0.0077301045336273678;0;0;0;0;0
0.38170350741115988;0.0070710678118654727;0;0;0;0;0
0.39760782021995816;0.006343932841636455;0;0;0;0;0
0.4135121330287565;0.0055557023301960216;0;0;0;0;0
0.42941644583755484;0.0047139673682599741;0;0;0;0;0
0.44532075864635318;0.0038268343236508946;0;0;0;0;0
0.46122507145515151;0.0029028467725446196;0;0;0;0;0
0.4771293842639498;0.0019509032201612817;0;0;0;0;0
0.49303369707274813;0.00098017140329560389;0;0;0;0;0
0.50893800988154647;-3.2162452993532734e-18;0;0;0;0;0
0.52484232269034481;-0.0009801714032956104;0;0;0;0;0
0.54074663549914315;-0.001950903220161288;0;0;0;0;0
0.55665094830794148;-0.0029028467725446257;0;0;0;0;0
0.57255526111673982;-0.0038268343236509007;0;0;0;0;0
0.58845957392553816;-0.0047139673682599801;0;0;0;0;0
0.60436388673433639;-0.0055557023301960233;0;0;0;0;0
0.62026819954313472;-0.0063439328416364559;0;0;0;0;0
0.63617251235193306;-0.0070710678118654745;0;0;0;0;0
0.6520768251607314;-0.0077301045336273721;0;0;0;0;0
0.66798113796952974;-0.0083146961230254526;0;0;0;0;0
0.68388545077832807;-0.0088192126434835528;0;0;0;0;0
0.69978976358712641;-0.0092387953251128682;0;0;0;0;0
0.71569407639592475;-0.0095694033573220909;0;0;0;0;0
0.73159838920472309;-0.0098078528040323049;0;0;0;0;0
0.74750270201352143;-0.0099518472667219689;0;0;0;0;0
0.76340701482231976;-0.01;0;0;0;0;0
0.77931132763111799;-0.0099518472667219689;0;0;0;0;0
0.79521564043991633;-0.0098078528040323049;0;0;0;0;0
0.81111995324871466;-0.0095694033573220875;0;0;0;0;0
0.827024266057513;-0.0092387953251128665;0;0;0;0;0
0.84292857886631134;-0.0088192126434835511;0;0;0;0;0
0.85883289167510968;-0.0083146961230254508;0;0;0;0;0
0.87473720448390802;-0.0077301045336273687;0;0;0;0;0
0.89064151729270635;-0.0070710678118654701;0;0;0;0;0
0.90654583010150469;-0.0063439328416364524;0;0;0;0;0
0.92245014291030303;-0.0055557023301960155;0;0;0;0;0
0.93835445571910125;-0.0047139673682599793;0;0;0;0;0
0.95425876852789959;-0.0038268343236508959;0;0;0;0;0
0.97016308133669793;-0.0029028467725446252;0;0;0;0;0
0.98606739414549627;-0.0019509032201612787;0;0;0;0;0
1.0019717069542946;-0.00098017140329560498;0;0;0;0;0
1.0178760197630929;6.4324905987065469e-18;0;0;0;0;0
1.0337803325718913;0.0009801714032956091;0;0;0;0;0
1.0496846453806896;0.001950903220161291;0;0;0;0;0
1.065588958189488;0.0029028467725446291;0;0;0;0;0
1.0814932709982863;0.003826834323650908;0;0;0;0;0
1.0973975838070846;0.0047139673682599836;0;0;0;0;0
1.113301896615883;0.0055557023301960251;0;0;0;0;0
1.1292062094246813;0.0063439328416364628;0;0;0;0;0
1.1451105222334796;0.0070710678118654788;0;0;0;0;0
1.161014835042278;0.0077301045336273765;0;0;0;0;0
1.1769191478510763;0.0083146961230254578;0;0;0;0;0
1.1928234606598744;0.0088192126434835493;0;0;0;0;0
1.2087277734686728;0.0092387953251128682;0;0;0;0;0
1.2246320862774711;0.0095694033573220892;0;0;0;0;0
1.2405363990862694;0.0098078528040323049;0;0;0;0;0
1.2564407118950678;0.0099518472667219689;0;0;0;0;0
1.2723450247038661;0.01;0;0;0;0;0
1.2882493375126645;0.0099518472667219689;0;0;0;0;0
1.3041536503214628;0.0098078528040323031;0;0;0;0;0
1.3200579631302611;0.0095694033573220875;0;0;0;0;0
1.3359622759390595;0.0092387953251128682;0;0;0;0;0
1.3518665887478578;0.0088192126434835511;0;0;0;0;0
1.3677709015566561;0.0083146961230254456;0;0;0;0;0
1.3836752143654545;0.0077301045336273643;0;0;0;0;0
1.3995795271742528;0.007071067811865471;0;0;0;0;0
1.4154838399830512;0.0063439328416364541;0;0;0;0;0
1.4313881527918495;0.0055557023301960086;0;0;0;0;0
1.4472924656006478;0.0047139673682599645;0;0;0;0;0
1.4631967784094462;0.003826834323650889;0;0;0;0;0
1.4791010912182445;0.0029028467725446178;0;0;0;0;0
1.4950054040270429;0.0019509032201612798;0;0;0;0;0
1.5109097168358412;0.00098017140329558872;0;0;0;0;0
1.5268140296446395;-1.4089627996560444e-17;0;0;0;0;0
1.5427183424534376;-0.00098017140329559891;0;0;0;0;0
1.558622655262236;-0.0019509032201612899;0;0;0;0;0
1.5745269680710343;-0.0029028467725446278;0;0;0;0;0
1.5904312808798327;-0.0038268343236508985;0;0;0;0;0
1.606335593688631;-0.0047139673682599741;0;0;0;0;0
1.6222399064974293;-0.005555702330196032;0;0;0;0;0
1.6381442193062277;-0.006343932841636462;0;0;0;0;0
1.654048532115026;-0.0070710678118654788;0;0;0;0;0
1.6699528449238243;-0.0077301045336273713;0;0;0;0;0
1.6858571577326227;-0.0083146961230254508;0;0;0;0;0
1.701761470541421;-0.0088192126434835563;0;0;0;0;0
1.7176657833502194;-0.0092387953251128717;0;0;0;0;0
1.7335700961590177;-0.0095694033573220909;0;0;0;0;0
1.749474408967816;-0.0098078528040323049;0;0;0;0;0
1.7653787217766144;-0.0099518472667219707;0;0;0;0;0
1.7812830345854127;-0.01;0;0;0;0;0
1.797187347394211;-0.0099518472667219689;0;0;0;0;0
1.8130916602030094;-0.0098078528040323031;0;0;0;0;0
1.8289959730118077;-0.0095694033573220875;0;0;0;0;0
1.8449002858206061;-0.0092387953251128613;0;0;0;0;0
1.8608045986294044;-0.0088192126434835441;0;0;0;0;0
1.8767089114382025;-0.008314696123025456;0;0;0;0;0
1.8926132242470008;-0.0077301045336273643;0;0;0;0;0
1.9085175370557992;-0.0070710678118654727;0;0;0;0;0
1.9244218498645975;-0.0063439328416364541;0;0;0;0;0
1.9403261626733959;-0.0055557023301960242;0;0;0;0;0
1.9562304754821942;-0.0047139673682599663;0;0;0;0;0
1.9721347882909925;-0.0038268343236508903;0;0;0;0;0
1.9880391010997909;-0.0029028467725446187;0;0;0;0;0
2.0039434139085892;-0.0019509032201612808;0;0;0;0;0
2.0198477267173875;-0.00098017140329560758;0;0;0;0;0
2.0357520395261859;1.2864981197413094e-17;0;0;0;0;0
2.0516563523349842;0.00098017140329561539;0;0;0;0;0
2.0675606651437826;0.0019509032201612886;0;0;0;0;0
2.0834649779525809;0.0029028467725446261;0;0;0;0;0
2.0993692907613792;0.0038268343236509132;0;0;0;0;0
2.1152736035701776;0.0047139673682599888;0;0;0;0;0
2.1311779163789759;0.0055557023301960311;0;0;0;0;0
2.1470822291877742;0.0063439328416364602;0;0;0;0;0
2.1629865419965726;0.0070710678118654901;0;0;0;0;0
2.1788908548053709;0.0077301045336273808;0;0;0;0;0
2.1947951676141693;0.0083146961230254595;0;0;0;0;0
2.2106994804229676;0.0088192126434835563;0;0;0;0;0
2.2266037932317659;0.0092387953251128717;0;0;0;0;0
2.2425081060405643;0.0095694033573220944;0;0;0;0;0
2.2584124188493626;0.0098078528040323083;0;0;0;0;0
2.274316731658161;0.0099518472667219707;0;0;0;0;0
2.2902210444669593;0.01;0;0;0;0;0
2.3061253572757576;0.0099518472667219655;0;0;0;0;0
2.322029670084556;0.0098078528040322997;0;0;0;0;0
2.3379339828933543;0.0095694033573220823;0;0;0;0;0
2.3538382957021526;0.0092387953251128613;0;0;0;0;0
2.369742608510951;0.0088192126434835354;0;0;0;0;0
2.3856469213197489;0.0083146961230254578;0;0;0;0;0
2.4015512341285472;0.0077301045336273765;0;0;0;0;0
2.4174555469373455;0.0070710678118654736;0;0;0;0;0
2.4333598597461439;0.006343932841636455;0;0;0;0;0
2.4492641725549422;0.0055557023301960251;0;0;0;0;0
2.4651684853637406;0.0047139673682599827;0;0;0;0;0
2.4810727981725389;0.0038268343236508911;0;0;0;0;0
2.4969771109813372;0.00290284677254462;0;0;0;0;0
2.5128814237901356;0.0019509032201612821;0;0;0;0;0
2.5287857365989339;0.00098017140329560888;0;0;0;0;0
2.5446900494077322;6.1232339957367663e-18;0;0;0;0;0
2.5605943622165306;-0.0009801714032956143;0;0;0;0;0
2.5764986750253289;-0.0019509032201612876;0;0;0;0;0
2.5924029878341273;-0.0029028467725446421;0;0;0;0;0
2.6083073006429256;-0.0038268343236509124;0;0;0;0;0
2.6242116134517239;-0.0047139673682599879;0;0;0;0;0
2.6401159262605223;-0.0055557023301960294;0;0;0;0;0
2.6560202390693206;-0.0063439328416364594;0;0;0;0;0
2.6719245518781189;-0.0070710678118654771;0;0;0;0;0
2.6878288646869173;-0.0077301045336273687;0;0;0;0;0
2.7037331774957156;-0.0083146961230254508;0;0;0;0;0
2.719637490304514;-0.0088192126434835632;0;0;0;0;0
2.7355418031133123;-0.0092387953251128769;0;0;0;0;0
2.7514461159221106;-0.0095694033573220944;0;0;0;0;0
2.767350428730909;-0.0098078528040323083;0;0;0;0;0
2.7832547415397073;-0.0099518472667219707;0;0;0;0;0
2.7991590543485056;-0.01;0;0;0;0;0
2.815063367157304;-0.0099518472667219689;0;0;0;0;0
2.8309676799661023;-0.0098078528040323031;0;0;0;0;0
2.8468719927749007;-0.0095694033573220892;0;0;0;0;0
2.862776305583699;-0.0092387953251128561;0;0;0;0;0
2.8786806183924973;-0.0088192126434835354;0;0;0;0;0
2.8945849312012957;-0.0083146961230254387;0;0;0;0;0
2.910489244010094;-0.0077301045336273556;0;0;0;0;0
2.9263935568188923;-0.0070710678118654615;0;0;0;0;0
2.9422978696276907;-0.0063439328416364429;0;0;0;0;0
2.958202182436489;-0.0055557023301960121;0;0;0;0;0
2.9741064952452874;-0.004713967368259968;0;0;0;0;0
2.9900108080540857;-0.0038268343236508924;0;0;0;0;0
3.005915120862884;-0.0029028467725445875;0;0;0;0;0
3.0218194336716824;-0.0019509032201612483;0;0;0;0;0
3.0377237464804807;-0.00098017140329557462;0;0;0;0;0
3.0536280592892791;2.8179255993120889e-17;0;0;0;0;0
3.0695323720980769;0.00098017140329559544;0;0;0;0;0
3.0854366849068753;0.0019509032201612689;0;0;0;0;0
3.1013409977156736;0.0029028467725446074;0;0;0;0;0
3.117245310524472;0.0038268343236509111;0;0;0;0;0
3.1331496233332703;0.0047139673682599862;0;0;0;0;0
3.1490539361420686;0.0055557023301960285;0;0;0;0;0
3.164958248950867;0.0063439328416364585;0;0;0;0;0
3.1808625617596653;0.0070710678118654762;0;0;0;0;0
3.1967668745684636;0.0077301045336273678;0;0;0;0;0
3.212671187377262;0.0083146961230254491;0;0;0;0;0
3.2285755001860603;0.0088192126434835458;0;0;0;0;0
3.2444798129948587;0.0092387953251128769;0;0;0;0;0
3.260384125803657;0.0095694033573220944;0;0;0;0;0
3.2762884386124553;0.0098078528040323083;0;0;0;0;0
3.2921927514212537;0.0099518472667219707;0;0;0;0;0
3.308097064230052;0.01;0;0;0;0;0
3.3240013770388503;0.0099518472667219689;0;0;0;0;0
3.3399056898476487;0.0098078528040323049;0;0;0;0;0
3.355810002656447;0.0095694033573220892;0;0;0;0;0
3.3717143154652454;0.0092387953251128682;0;0;0;0;0
3.3876186282740437;0.0088192126434835372;0;0;0;0;0
3.403522941082842;0.0083146961230254387;0;0;0;0;0
3.4194272538916404;0.0077301045336273556;0;0;0;0;0
3.4353315667004387;0.0070710678118654623;0;0;0;0;0
3.451235879509237;0.0063439328416364437;0;0;0;0;0
3.4671401923180354;0.0055557023301960129;0;0;0;0;0
3.4830445051268337;0.0047139673682599697;0;0;0;0;0
3.4989488179356321;0.0038268343236508933;0;0;0;0;0
3.5148531307444304;0.0029028467725446222;0;0;0;0;0
3.5307574435532287;0.0019509032201612498;0;0;0;0;0
3.5466617563620271;0.0009801714032955757;0;0;0;0;0
3.5625660691708254;-2.6954609193973538e-17;0;0;0;0;0
3.5784703819796237;-0.00098017140329562948;0;0;0;0;0
3.5943746947884221;-0.0019509032201613025;0;0;0;0;0
3.6102790075972204;-0.00290284677254464;0;0;0;0;0
3.6261833204060188;-0.0038268343236509102;0;0;0;0;0
3.6420876332148171;-0.0047139673682599853;0;0;0;0;0
3.6579919460236154;-0.0055557023301960277;0;0;0;0;0
3.6738962588324138;-0.0063439328416364854;0;0;0;0;0
3.6898005716412121;-0.0070710678118655005;0;0;0;0;0
3.7057048844500105;-0.0077301045336273903;0;0;0;0;0
3.7216091972588088;-0.0083146961230254682;0;0;0;0;0
3.7375135100676067;-0.0088192126434835458;0;0;0;0;0
3.753417822876405;-0.009238795325112863;0;0;0;0;0
3.7693221356852034;-0.0095694033573220944;0;0;0;0;0
3.7852264484940017;-0.0098078528040323083;0;0;0;0;0
3.8011307613028;-0.0099518472667219707;0;0;0;0;0
3.8170350741115984;-0.01;0;0;0;0;0
3.8329393869203967;-0.0099518472667219689;0;0;0;0;0
3.848843699729195;-0.0098078528040323049;0;0;0;0;0
3.8647480125379934;-0.0095694033573220892;0;0;0;0;0
3.8806523253467917;-0.00923879532511287;0;0;0;0;0
3.8965566381555901;-0.0088192126434835545;0;0;0;0;0
3.9124609509643884;-0.0083146961230254387;0;0;0;0;0
3.9283652637731867;-0.0077301045336273565;0;0;0;0;0
3.9442695765819851;-0.0070710678118654641;0;0;0;0;0
3.9601738893907834;-0.0063439328416364437;0;0;0;0;0
3.9760782021995817;-0.0055557023301960138;0;0;0;0;0
3.9919825150083801;-0.0047139673682599706;0;0;0;0;0
4.0078868278171784;-0.0038268343236508946;0;0;0;0;0
4.0237911406259768;-0.0029028467725446235;0;0;0;0;0
4.0396954534347751;-0.0019509032201612858;0;0;0;0;0
4.0555997662435734;-0.00098017140329557701;0;0;0;0;0
4.0715040790523718;2.5729962394826188e-17;0;0;0;0;0
4.0874083918611701;0.00098017140329562818;0;0;0;0;0
4.1033127046699684;0.0019509032201613014;0;0;0;0;0
4.1192170174787668;0.0029028467725446391;0;0;0;0;0
4.1351213302875651;0.0038268343236509089;0;0;0;0;0
4.1510256430963635;0.0047139673682599845;0;0;0;0;0
4.1669299559051618;0.0055557023301960277;0;0;0;0;0
4.1828342687139601;0.0063439328416364576;0;0;0;0;0
4.1987385815227585;0.0070710678118654988;0;0;0;0;0
4.2146428943315568;0.0077301045336273886;0;0;0;0;0
4.2305472071403551;0.0083146961230254682;0;0;0;0;0
4.2464515199491535;0.0088192126434835615;0;0;0;0;0
4.2623558327579518;0.0092387953251128752;0;0;0;0;0
4.2782601455667502;0.0095694033573220944;0;0;0;0;0
4.2941644583755485;0.0098078528040323083;0;0;0;0;0
4.3100687711843468;0.0099518472667219707;0;0;0;0;0
4.3259730839931452;0.01;0;0;0;0;0
4.3418773968019435;0.0099518472667219655;0;0;0;0;0
4.3577817096107418;0.0098078528040322979;0;0;0;0;0
4.3736860224195402;0.0095694033573220788;0;0;0;0;0
4.3895903352283385;0.0092387953251128561;0;0;0;0;0
4.4054946480371369;0.0088192126434835389;0;0;0;0;0
4.4213989608459352;0.0083146961230254404;0;0;0;0;0
4.4373032736547335;0.0077301045336273582;0;0;0;0;0
4.4532075864635319;0.0070710678118654641;0;0;0;0;0
4.4691118992723302;0.0063439328416364186;0;0;0;0;0
4.4850162120811286;0.0055557023301959852;0;0;0;0;0
4.5009205248899269;0.0047139673682599402;0;0;0;0;0
4.5168248376987252;0.0038268343236508629;0;0;0;0;0
4.5327291505075236;0.0029028467725445905;0;0;0;0;0
4.5486334633163219;0.001950903220161252;0;0;0;0;0
4.5645377761251202;0.00098017140329557831;0;0;0;0;0
4.5804420889339186;-2.4505315595678831e-17;0;0;0;0;0
4.5963464017427169;-0.0009801714032956271;0;0;0;0;0
4.6122507145515153;-0.0019509032201613351;0;0;0;0;0
4.6281550273603136;-0.0029028467725446716;0;0;0;0;0
4.6440593401691119;-0.0038268343236509406;0;0;0;0;0
4.6599636529779103;-0.0047139673682600148;0;0;0;0;0
4.6758679657867086;-0.0055557023301960554;0;0;0;0;0
4.6917722785955069;-0.0063439328416364828;0;0;0;0;0
4.7076765914043053;-0.0070710678118654988;0;0;0;0;0
4.7235809042131036;-0.0077301045336273886;0;0;0;0;0
4.739485217021902;-0.0083146961230254873;0;0;0;0;0
4.7553895298306994;-0.0088192126434835441;0;0;0;0;0
4.7712938426394977;-0.0092387953251128613;0;0;0;0;0
4.7871981554482961;-0.0095694033573220823;0;0;0;0;0
4.8031024682570944;-0.0098078528040322997;0;0;0;0;0
4.8190067810658928;-0.0099518472667219689;0;0;0;0;0
4.8349110938746911;-0.01;0;0;0;0;0
4.8508154066834894;-0.0099518472667219689;0;0;0;0;0
4.8667197194922878;-0.0098078528040323049;0;0;0;0;0
4.8826240323010861;-0.0095694033573220892;0;0;0;0;0
4.8985283451098844;-0.0092387953251128717;0;0;0;0;0
4.9144326579186828;-0.0088192126434835545;0;0;0;0;0
4.9303369707274811;-0.0083146961230254595;0;0;0;0;0
4.9462412835362795;-0.0077301045336273808;0;0;0;0;0
4.9621455963450778;-0.0070710678118654649;0;0;0;0;0
4.9780499091538761;-0.0063439328416364463;0;0;0;0;0
4.9939542219626745;-0.0055557023301960155;0;0;0;0;0
5.0098585347714728;-0.0047139673682599723;0;0;0;0;0
5.0257628475802711;-0.0038268343236508968;0;0;0;0;0
5.0416671603890695;-0.0029028467725446257;0;0;0;0;0
5.0575714731978678;-0.001950903220161288;0;0;0;0;0
5.0734757860066662;-0.00098017140329561495;0;0;0;0;0
5.0893800988154645;-1.2246467991473533e-17;0;0;0;0;0
5.1052844116242628;0.00098017140329562579;0;0;0;0;0
5.1211887244330612;0.0019509032201612988;0;0;0;0;0
5.1370930372418595;0.0029028467725446361;0;0;0;0;0
5.1529973500506578;0.0038268343236509067;0;0;0;0;0
5.1689016628594562;0.0047139673682599819;0;0;0;0;0
5.1848059756682545;0.0055557023301960537;0;0;0;0;0
5.2007102884770529;0.006343932841636455;0;0;0;0;0
5.2166146012858512;0.0070710678118654979;0;0;0;0;0
5.2325189140946495;0.007730104533627366;0;0;0;0;0
5.2484232269034479;0.0083146961230254664;0;0;0;0;0
5.2643275397122462;0.0088192126434835441;0;0;0;0;0
5.2802318525210445;0.0092387953251128734;0;0;0;0;0
5.2961361653298429;0.0095694033573220823;0;0;0;0;0
5.3120404781386412;0.0098078528040323066;0;0;0;0;0
5.3279447909474396;0.0099518472667219724;0;0;0;0;0
5.3438491037562379;0.01;0;0;0;0;0
5.3597534165650362;0.0099518472667219655;0;0;0;0;0
5.3756577293738346;0.0098078528040323049;0;0;0;0;0
5.3915620421826329;0.0095694033573220788;0;0;0;0;0
5.4074663549914312;0.0092387953251128717;0;0;0;0;0
5.4233706678002296;0.0088192126434835389;0;0;0;0;0
5.4392749806090279;0.0083146961230254213;0;0;0;0;0
5.4551792934178263;0.0077301045336273591;0;0;0;0;0
5.4710836062266246;0.0070710678118654407;0;0;0;0;0
5.4869879190354229;0.0063439328416364472;0;0;0;0;0
5.5028922318442213;0.0055557023301959878;0;0;0;0;0
5.5187965446530196;0.0047139673682599741;0;0;0;0;0
5.5347008574618179;0.0038268343236508651;0;0;0;0;0
5.5506051702706163;0.0029028467725446265;0;0;0;0;0
5.5665094830794146;0.0019509032201612544;0;0;0;0;0
5.582413795888213;0.00098017140329554535;0;0;0;0;0
5.5983181086970113;-2.2056021997384124e-17;0;0;0;0;0
5.6142224215058096;-0.00098017140329566006;0;0;0;0;0
5.630126734314608;-0.0019509032201612978;0;0;0;0;0
5.6460310471234063;-0.0029028467725446695;0;0;0;0;0
5.6619353599322046;-0.0038268343236509059;0;0;0;0;0
5.677839672741003;-0.0047139673682600122;0;0;0;0;0
5.6937439855498013;-0.0055557023301960242;0;0;0;0;0
5.7096482983585997;-0.0063439328416364819;0;0;0;0;0
5.725552611167398;-0.0070710678118655222;0;0;0;0;0
5.7414569239761963;-0.0077301045336273869;0;0;0;0;0
5.7573612367849947;-0.0083146961230254855;0;0;0;0;0
5.773265549593793;-0.0088192126434835615;0;0;0;0;0
5.7891698624025913;-0.0092387953251128873;0;0;0;0;0
5.8050741752113897;-0.0095694033573220927;0;0;0;0;0
5.820978488020188;-0.0098078528040323135;0;0;0;0;0
5.8368828008289864;-0.0099518472667219689;0;0;0;0;0
5.8527871136377847;-0.01;0;0;0;0;0
5.868691426446583;-0.009951847266721962;0;0;0;0;0
5.8845957392553814;-0.0098078528040322979;0;0;0;0;0
5.9005000520641797;-0.0095694033573220701;0;0;0;0;0
5.9164043648729781;-0.0092387953251128578;0;0;0;0;0
5.9323086776817764;-0.0088192126434835233;0;0;0;0;0
5.9482129904905747;-0.0083146961230254422;0;0;0;0;0
5.9641173032993731;-0.0077301045336273366;0;0;0;0;0
5.9800216161081714;-0.0070710678118654667;0;0;0;0;0
5.9959259289169697;-0.0063439328416364203;0;0;0;0;0
6.0118302417257681;-0.0055557023301959583;0;0;0;0;0
6.0277345545345664;-0.0047139673682599428;0;0;0;0;0
6.0436388673433648;-0.0038268343236508334;0;0;0;0;0
6.0595431801521631;-0.002902846772544594;0;0;0;0;0
6.0754474929609614;-0.001950903220161221;0;0;0;0;0
6.0913518057697598;-0.00098017140329558199;0;0;0;0;0
6.1072561185785581;5.6358511986241777e-17;0;0;0;0;0
6.1231604313873556;0.00098017140329562341;0;0;0;0;0
6.1390647441961539;0.0019509032201612618;0;0;0;0;0
6.1549690570049522;0.0029028467725446339;0;0;0;0;0
6.1708733698137506;0.0038268343236508716;0;0;0;0;0
6.1867776826225489;0.0047139673682599801;0;0;0;0;0
6.2026819954313472;0.005555702330195993;0;0;0;0;0
6.2185863082401456;0.0063439328416364524;0;0;0;0;0
6.2344906210489439;0.0070710678118654962;0;0;0;0;0
6.2503949338577423;0.0077301045336273634;0;0;0;0;0
6.2662992466665406;0.0083146961230254647;0;0;0;0;0
6.2822035594753389;0.0088192126434835424;0;0;0;0;0
6.2981078722841373;0.0092387953251128734;0;0;0;0;0
6.3140121850929356;0.0095694033573220823;0;0;0;0;0
6.3299164979017339;0.0098078528040323066;0;0;0;0;0
6.3458208107105323;0.0099518472667219655;0;0;0;0;0
6.3617251235193306;0.01;0;0;0;0;0
6.377629436328129;0.0099518472667219655;0;0;0;0;0
6.3935337491369273;0.0098078528040323049;0;0;0;0;0
6.4094380619457256;0.0095694033573220805;0;0;0;0;0
6.425342374754524;0.0092387953251128717;0;0;0;0;0
6.4412466875633223;0.0088192126434835406;0;0;0;0;0
6.4571510003721206;0.008314696123025463;0;0;0;0;0
6.473055313180919;0.00773010453362736;0;0;0;0;0
6.4889596259897173;0.0070710678118654424;0;0;0;0;0
6.5048639387985157;0.0063439328416364498;0;0;0;0;0
6.520768251607314;0.0055557023301959895;0;0;0;0;0
6.5366725644161123;0.0047139673682599758;0;0;0;0;0
6.5525768772249107;0.0038268343236508673;0;0;0;0;0
6.568481190033709;0.0029028467725446296;0;0;0;0;0
6.5843855028425073;0.001950903220161257;0;0;0;0;0
6.6002898156513057;0.00098017140329561864;0;0;0;0;0
6.616194128460104;-1.9606728399089417e-17;0;0;0;0;0
6.6320984412689024;-0.00098017140329565745;0;0;0;0;0
6.6480027540777007;-0.0019509032201612954;0;0;0;0;0
6.663907066886499;-0.0029028467725446669;0;0;0;0;0
6.6798113796952974;-0.0038268343236509033;0;0;0;0;0
6.6957156925040957;-0.0047139673682600105;0;0;0;0;0
6.711620005312894;-0.0055557023301960216;0;0;0;0;0
6.7275243181216924;-0.0063439328416364793;0;0;0;0;0
6.7434286309304907;-0.0070710678118654701;0;0;0;0;0
6.7593329437392891;-0.007730104533627386;0;0;0;0;0
6.7752372565480874;-0.0083146961230254855;0;0;0;0;0
6.7911415693568857;-0.008819212643483558;0;0;0;0;0
6.8070458821656841;-0.0092387953251128873;0;0;0;0;0
6.8229501949744824;-0.0095694033573220909;0;0;0;0;0
6.8388545077832807;-0.0098078528040323135;0;0;0;0;0
6.8547588205920791;-0.0099518472667219689;0;0;0;0;0
6.8706631334008774;-0.01;0;0;0;0;0
6.8865674462096758;-0.0099518472667219689;0;0;0;0;0
6.9024717590184741;-0.0098078528040322997;0;0;0;0;0
6.9183760718272724;-0.0095694033573220701;0;0;0;0;0
6.9342803846360708;-0.0092387953251128595;0;0;0;0;0
6.9501846974448691;-0.0088192126434835233;0;0;0;0;0
6.9660890102536674;-0.0083146961230254439;0;0;0;0;0
6.9819933230624658;-0.0077301045336273392;0;0;0;0;0
6.9978976358712641;-0.0070710678118654684;0;0;0;0;0
7.0138019486800625;-0.0063439328416364229;0;0;0;0;0
7.0297062614888608;-0.0055557023301960199;0;0;0;0;0
7.0456105742976591;-0.0047139673682599454;0;0;0;0;0
7.0615148871064575;-0.0038268343236508356;0;0;0;0;0
7.0774191999152558;-0.0029028467725445966;0;0;0;0;0
7.0933235127240541;-0.0019509032201612232;0;0;0;0;0
7.1092278255328525;-0.00098017140329558438;0;0;0;0;0
7.1251321383416508;5.3909218387947076e-17;0;0;0;0;0
7.1410364511504492;0.00098017140329562102;0;0;0;0;0
7.1569407639592475;0.001950903220161329;0;0;0;0;0
7.1728450767680458;0.0029028467725446317;0;0;0;0;0
7.1887493895768442;0.0038268343236509349;0;0;0;0;0
7.2046537023856425;0.00471396736826004;0;0;0;0;0
7.2205580151944408;0.0055557023301960511;0;0;0;0;0
7.2364623280032392;0.0063439328416365062;0;0;0;0;0
7.2523666408120375;0.0070710678118654944;0;0;0;0;0
7.2682709536208359;0.0077301045336274068;0;0;0;0;0
7.2841752664296342;0.008314696123025463;0;0;0;0;0
7.3000795792384325;0.0088192126434835753;0;0;0;0;0
7.3159838920472309;0.0092387953251128734;0;0;0;0;0
7.3318882048560292;0.0095694033573221014;0;0;0;0;0
7.3477925176648275;0.0098078528040323205;0;0;0;0;0
7.3636968304736259;0.0099518472667219724;0;0;0;0;0
7.3796011432824242;0.01;0;0;0;0;0
7.3955054560912226;0.0099518472667219655;0;0;0;0;0
7.4114097689000209;0.0098078528040322927;0;0;0;0;0
7.4273140817088192;0.0095694033573220823;0;0;0;0;0
7.4432183945176176;0.0092387953251128457;0;0;0;0;0
7.4591227073264159;0.0088192126434835077;0;0;0;0;0
7.4750270201352134;0.008314696123025463;0;0;0;0;0
7.4909313329440117;0.0077301045336273626;0;0;0;0;0
7.50683564575281;0.0070710678118654944;0;0;0;0;0
7.5227399585616084;0.0063439328416364507;0;0;0;0;0
7.5386442713704067;0.0055557023301959904;0;0;0;0;0
7.5545485841792051;0.0047139673682599784;0;0;0;0;0
7.5704528969880034;0.0038268343236508694;0;0;0;0;0
7.5863572097968017;0.0029028467725446317;0;0;0;0;0
7.6022615226056001;0.0019509032201612592;0;0;0;0;0
7.6181658354143984;0.00098017140329562081;0;0;0;0;0
7.6340701482231967;-1.7157434800794713e-17;0;0;0;0;0
7.6499744610319951;-0.00098017140329558438;0;0;0;0;0
7.6658787738407934;-0.001950903220161293;0;0;0;0;0
7.6817830866495918;-0.0029028467725446643;0;0;0;0;0
7.6976873994583901;-0.0038268343236509011;0;0;0;0;0
7.7135917122671884;-0.0047139673682600079;0;0;0;0;0
7.7294960250759868;-0.0055557023301960199;0;0;0;0;0
7.7454003378847851;-0.0063439328416364776;0;0;0;0;0
7.7613046506935834;-0.0070710678118654684;0;0;0;0;0
7.7772089635023818;-0.0077301045336273834;0;0;0;0;0
7.7931132763111801;-0.0083146961230254439;0;0;0;0;0
7.8090175891199785;-0.008819212643483558;0;0;0;0;0
7.8249219019287768;-0.0092387953251128873;0;0;0;0;0
7.8408262147375751;-0.0095694033573220909;0;0;0;0;0
7.8567305275463735;-0.0098078528040323118;0;0;0;0;0
7.8726348403551718;-0.0099518472667219689;0;0;0;0;0
7.8885391531639701;-0.01;0;0;0;0;0
7.9044434659727685;-0.0099518472667219689;0;0;0;0;0
7.9203477787815668;-0.0098078528040322997;0;0;0;0;0
7.9362520915903652;-0.0095694033573220909;0;0;0;0;0
7.9521564043991635;-0.0092387953251128595;0;0;0;0;0
7.9680607172079618;-0.008819212643483525;0;0;0;0;0
7.9839650300167602;-0.0083146961230254439;0;0;0;0;0
7.9998693428255585;-0.00773010453362734;0;0;0;0;0
8.0157736556343568;-0.0070710678118654701;0;0;0;0;0
8.0316779684431552;-0.0063439328416364247;0;0;0;0;0
8.0475822812519535;-0.0055557023301960216;0;0;0;0;0
8.0634865940607519;-0.004713967368259948;0;0;0;0;0
8.0793909068695502;-0.0038268343236509033;0;0;0;0;0
8.0952952196783485;-0.0029028467725445988;0;0;0;0;0
8.1111995324871469;-0.0019509032201612255;0;0;0;0;0
8.1271038452959452;-0.00098017140329558676;0;0;0;0;0
8.1430081581047435;5.1459924789652375e-17;0;0;0;0;0
8.1589124709135419;0.00098017140329561864;0;0;0;0;0
8.1748167837223402;0.0019509032201613266;0;0;0;0;0
8.1907210965311386;0.0029028467725446296;0;0;0;0;0
8.2066254093399369;0.0038268343236509328;0;0;0;0;0
8.2225297221487352;0.0047139673682599758;0;0;0;0;0
8.2384340349575336;0.0055557023301960485;0;0;0;0;0
8.2543383477663319;0.0063439328416365036;0;0;0;0;0
8.2702426605751302;0.0070710678118654927;0;0;0;0;0
8.2861469733839286;0.0077301045336274059;0;0;0;0;0
8.3020512861927269;0.008314696123025463;0;0;0;0;0
8.3179555990015253;0.0088192126434835736;0;0;0;0;0
8.3338599118103236;0.0092387953251128717;0;0;0;0;0
8.3497642246191219;0.0095694033573221014;0;0;0;0;0
8.3656685374279203;0.0098078528040323049;0;0;0;0;0
8.3815728502367186;0.0099518472667219724;0;0;0;0;0
8.3974771630455169;0.01;0;0;0;0;0
8.4133814758543153;0.0099518472667219655;0;0;0;0;0
8.4292857886631136;0.0098078528040322927;0;0;0;0;0
8.445190101471912;0.0095694033573220823;0;0;0;0;0
8.4610944142807103;0.0092387953251128457;0;0;0;0;0
8.4769987270895086;0.0088192126434835424;0;0;0;0;0
8.492903039898307;0.0083146961230254265;0;0;0;0;0
8.5088073527071053;0.0077301045336273192;0;0;0;0;0
8.5247116655159036;0.0070710678118654459;0;0;0;0;0
8.540615978324702;0.0063439328416363986;0;0;0;0;0
8.5565202911335003;0.005555702330195993;0;0;0;0;0
8.5724246039422987;0.0047139673682599177;0;0;0;0;0
8.588328916751097;0.0038268343236508716;0;0;0;0;0
8.6042332295598953;0.0029028467725445662;0;0;0;0;0
8.6201375423686937;0.0019509032201612618;0;0;0;0;0
8.636041855177492;0.00098017140329555272;0;0;0;0;0
8.6519461679862903;-8.5762414778510029e-17;0;0;0;0;0
8.6678504807950887;-0.00098017140329565268;0;0;0;0;0
8.683754793603887;-0.0019509032201613602;0;0;0;0;0
8.6996591064126854;-0.0029028467725446621;0;0;0;0;0
8.7155634192214837;-0.0038268343236509644;0;0;0;0;0
8.731467732030282;-0.0047139673682600062;0;0;0;0;0
8.7473720448390804;-0.0055557023301960771;0;0;0;0;0
8.7632763576478787;-0.0063439328416364758;0;0;0;0;0
8.779180670456677;-0.007071067811865517;0;0;0;0;0
8.7950849832654754;-0.0077301045336274276;0;0;0;0;0
8.8109892960742737;-0.0083146961230254821;0;0;0;0;0
8.8268936088830721;-0.0088192126434835909;0;0;0;0;0
8.8427979216918704;-0.0092387953251128856;0;0;0;0;0
8.8587022345006687;-0.0095694033573221118;0;0;0;0;0
8.8746065473094671;-0.0098078528040323118;0;0;0;0;0
8.8905108601182654;-0.0099518472667219759;0;0;0;0;0
8.9064151729270638;-0.01;0;0;0;0;0
8.9223194857358621;-0.009951847266721962;0;0;0;0;0
8.9382237985446604;-0.0098078528040322858;0;0;0;0;0
8.9541281113534588;-0.0095694033573220719;0;0;0;0;0
8.9700324241622571;-0.0092387953251128335;0;0;0;0;0
8.9859367369710554;-0.0088192126434835268;0;0;0;0;0
9.0018410497798538;-0.0083146961230254075;0;0;0;0;0
9.0177453625886521;-0.0077301045336273426;0;0;0;0;0
9.0336496753974505;-0.0070710678118654216;0;0;0;0;0
9.0495539882062488;-0.0063439328416364264;0;0;0;0;0
9.0654583010150471;-0.0055557023301959652;0;0;0;0;0
9.0813626138238455;-0.0047139673682598873;0;0;0;0;0
9.0972669266326438;-0.0038268343236508404;0;0;0;0;0
9.1131712394414421;-0.0029028467725445333;0;0;0;0;0
9.1290755522502405;-0.0019509032201612281;0;0;0;0;0
9.1449798650590388;-0.00098017140329551846;0;0;0;0;0
9.1608841778678372;4.9010631191357662e-17;0;0;0;0;0
9.1767884906766355;0.00098017140329568673;0;0;0;0;0
9.1926928034854338;0.0019509032201613242;0;0;0;0;0
9.2085971162942322;0.002902846772544695;0;0;0;0;0
9.2245014291030305;0.0038268343236509961;0;0;0;0;0
9.2404057419118288;0.0047139673682600365;0;0;0;0;0
9.2563100547206272;0.0055557023301961049;0;0;0;0;0
9.2722143675294255;0.0063439328416365027;0;0;0;0;0
9.2881186803382239;0.0070710678118655413;0;0;0;0;0
9.3040229931470222;0.0077301045336274042;0;0;0;0;0
9.3199273059558205;0.0083146961230254994;0;0;0;0;0
9.3358316187646189;0.0088192126434835736;0;0;0;0;0
9.3517359315734172;0.0092387953251128994;0;0;0;0;0
9.3676402443822155;0.0095694033573221222;0;0;0;0;0
9.3835445571910139;0.0098078528040323187;0;0;0;0;0
9.3994488699998122;0.0099518472667219793;0;0;0;0;0
9.4153531828086106;0.01;0;0;0;0;0
9.4312574956174089;0.0099518472667219603;0;0;0;0;0
9.4471618084262072;0.0098078528040322927;0;0;0;0;0
9.4630661212350056;0.0095694033573220615;0;0;0;0;0
9.4789704340438039;0.0092387953251128214;0;0;0;0;0
9.4948747468526022;0.0088192126434835112;0;0;0;0;0
9.5107790596613988;0.0083146961230254664;0;0;0;0;0
9.5266833724701971;0.007730104533627366;0;0;0;0;0
9.5425876852789955;0.0070710678118654979;0;0;0;0;0
9.5584919980877938;0.006343932841636455;0;0;0;0;0
9.5743963108965922;0.0055557023301960537;0;0;0;0;0
9.5903006237053905;0.0047139673682599819;0;0;0;0;0
9.6062049365141888;0.0038268343236509397;0;0;0;0;0
9.6221092493229872;0.0029028467725446361;0;0;0;0;0
9.6380135621317855;0.0019509032201612641;0;0;0;0;0
9.6539178749405838;0.00098017140329562579;0;0;0;0;0
9.6698221877493822;-1.22588476042053e-17;0;0;0;0;0
9.6857265005581805;-0.00098017140329557961;0;0;0;0;0
9.7016308133669789;-0.001950903220161288;0;0;0;0;0
9.7175351261757772;-0.0029028467725445918;0;0;0;0;0
9.7334394389845755;-0.0038268343236508968;0;0;0;0;0
9.7493437517933739;-0.0047139673682599411;0;0;0;0;0
9.7652480646021722;-0.0055557023301960155;0;0;0;0;0
9.7811523774109705;-0.0063439328416364741;0;0;0;0;0
9.7970566902197689;-0.0070710678118654649;0;0;0;0;0
9.8129610030285672;-0.0077301045336273808;0;0;0;0;0
9.8288653158373656;-0.0083146961230254404;0;0;0;0;0
9.8447696286461639;-0.0088192126434835545;0;0;0;0;0
9.8606739414549622;-0.0092387953251128561;0;0;0;0;0
9.8765782542637606;-0.0095694033573220892;0;0;0;0;0
9.8924825670725589;-0.0098078528040322979;0;0;0;0;0
9.9083868798813572;-0.0099518472667219689;0;0;0;0;0
9.9242911926901556;-0.01;0;0;0;0;0
9.9401955054989539;-0.0099518472667219689;0;0;0;0;0
9.9560998183077523;-0.0098078528040322997;0;0;0;0;0
9.9720041311165506;-0.0095694033573220944;0;0;0;0;0
9.9879084439253489;-0.0092387953251128613;0;0;0;0;0
10.003812756734147;-0.0088192126434835615;0;0;0;0;0
10.019717069542946;-0.0083146961230254474;0;0;0;0;0
10.035621382351744;-0.0077301045336273886;0;0;0;0;0
10.051525695160542;-0.0070710678118654736;0;0;0;0;0
10.067430007969341;-0.0063439328416364281;0;0;0;0;0
10.083334320778139;-0.0055557023301960259;0;0;0;0;0
10.099238633586937;-0.0047139673682599524;0;0;0;0;0
10.115142946395736;-0.003826834323650908;0;0;0;0;0
10.131047259204534;-0.0029028467725446035;0;0;0;0;0
10.146951572013332;-0.0019509032201612999;0;0;0;0;0
10.162855884822131;-0.00098017140329559175;0;0;0;0;0
10.178760197630929;-2.4492935982947065e-17;0;0;0;0;0
10.194664510439727;0.00098017140329561365;0;0;0;0;0
10.210568823248526;0.0019509032201613216;0;0;0;0;0
10.226473136057324;0.0029028467725446244;0;0;0;0;0
10.242377448866122;0.0038268343236509284;0;0;0;0;0
10.258281761674921;0.0047139673682599715;0;0;0;0;0
10.274186074483719;0.0055557023301960442;0;0;0;0;0
10.290090387292517;0.0063439328416364446;0;0;0;0;0
10.305994700101316;0.0070710678118654892;0;0;0;0;0
10.321899012910114;0.0077301045336273582;0;0;0;0;0
10.337803325718912;0.0083146961230254595;0;0;0;0;0
10.353707638527711;0.0088192126434835719;0;0;0;0;0
10.369611951336509;0.0092387953251128977;0;0;0;0;0
10.385516264145307;0.0095694033573220996;0;0;0;0;0
10.401420576954106;0.0098078528040323049;0;0;0;0;0
10.417324889762904;0.0099518472667219655;0;0;0;0;0
10.433229202571702;0.01;0;0;0;0;0
10.449133515380501;0.0099518472667219655;0;0;0;0;0
10.465037828189299;0.0098078528040323083;0;0;0;0;0
10.480942140998097;0.0095694033573220632;0;0;0;0;0
10.496846453806896;0.0092387953251128491;0;0;0;0;0
10.512750766615694;0.0088192126434835458;0;0;0;0;0
10.528655079424492;0.0083146961230254682;0;0;0;0;0
10.544559392233291;0.0077301045336273209;0;0;0;0;0
10.560463705042089;0.0070710678118654493;0;0;0;0;0
10.576368017850887;0.0063439328416364576;0;0;0;0;0
10.592272330659686;0.0055557023301960563;0;0;0;0;0
10.608176643468484;0.0047139673682599212;0;0;0;0;0
10.624080956277282;0.0038268343236508764;0;0;0;0;0
10.639985269086081;0.0029028467725446391;0;0;0;0;0
10.655889581894879;0.0019509032201611967;0;0;0;0;0
10.671793894703677;0.00098017140329555771;0;0;0;0;0
10.687698207512476;-9.8095540059105926e-18;0;0;0;0;0
10.703602520321274;-0.00098017140329557701;0;0;0;0;0
10.719506833130072;-0.0019509032201613554;0;0;0;0;0
10.735411145938871;-0.0029028467725446573;0;0;0;0;0
10.751315458747669;-0.0038268343236508946;0;0;0;0;0
10.767219771556467;-0.0047139673682600643;0;0;0;0;0
10.783124084365266;-0.0055557023301960728;0;0;0;0;0
10.799028397174064;-0.0063439328416364715;0;0;0;0;0
10.814932709982862;-0.0070710678118654641;0;0;0;0;0
10.830837022791661;-0.0077301045336274242;0;0;0;0;0
10.846741335600459;-0.0083146961230254786;0;0;0;0;0
10.862645648409258;-0.0088192126434835545;0;0;0;0;0
10.878549961218056;-0.0092387953251129116;0;0;0;0;0
10.894454274026854;-0.00956940335732211;0;0;0;0;0
10.910358586835653;-0.0098078528040323118;0;0;0;0;0
10.926262899644451;-0.0099518472667219689;0;0;0;0;0
10.942167212453249;-0.01;0;0;0;0;0
10.958071525262048;-0.009951847266721962;0;0;0;0;0
10.973975838070846;-0.0098078528040323014;0;0;0;0;0
10.989880150879644;-0.0095694033573220944;0;0;0;0;0
11.005784463688443;-0.0092387953251128353;0;0;0;0;0
11.021688776497241;-0.0088192126434835285;0;0;0;0;0
11.037593089306039;-0.0083146961230254491;0;0;0;0;0
11.053497402114838;-0.0077301045336273001;0;0;0;0;0
11.069401714923636;-0.007071067811865425;0;0;0;0;0
11.085306027732434;-0.0063439328416364307;0;0;0;0;0
11.101210340541233;-0.0055557023301960277;0;0;0;0;0
11.117114653350031;-0.0047139673682598917;0;0;0;0;0
11.133018966158829;-0.0038268343236508447;0;0;0;0;0
11.148923278967628;-0.0029028467725446057;0;0;0;0;0
11.164827591776426;-0.0019509032201611631;0;0;0;0;0
