#Time;LinearAccX;LinearAccY;LinearAccZ;AngularAccX;AngularAccY;AngularAccZ
0;0;0;0;0;0;0
0.049166816556603925;0.00098017140329560606;0;0;0;0;0
0.098333633113207849;0.0019509032201612826;0;0;0;0;0
0.14750044966981177;0.0029028467725446235;0;0;0;0;0
0.1966672662264157;0.0038268343236508981;0;0;0;0;0
0.24583408278301963;0.0047139673682599767;0;0;0;0;0
0.29500089933962353;0.0055557023301960207;0;0;0;0;0
0.34416771589622747;0.006343932841636455;0;0;0;0;0
0.3933345324528314;0.0070710678118654745;0;0;0;0;0
0.44250134900943533;0.0077301045336273704;0;0;0;0;0
0.49166816556603926;0.0083146961230254526;0;0;0;0;0
0.54083498212264314;0.0088192126434835493;0;0;0;0;0
0.59000179867924707;0.0092387953251128665;0;0;0;0;0
0.639168615235851;0.0095694033573220892;0;0;0;0;0
0.68833543179245493;0.0098078528040323049;0;0;0;0;0
0.73750224834905886;0.0099518472667219689;0;0;0;0;0
0.7866690649056628;0.01;0;0;0;0;0
0.83583588146226673;0.0099518472667219689;0;0;0;0;0
0.88500269801887066;0.0098078528040323049;0;0;0;0;0
0.93416951457547459;0.0095694033573220892;0;0;0;0;0
0.98333633113207852;0.0092387953251128682;0;0;0;0;0
1.0325031476886823;0.0088192126434835528;0;0;0;0;0
1.0816699642452863;0.0083146961230254543;0;0;0;0;0
1.1308367808018902;0.0077301045336273713;0;0;0;0;0
1.1800035973584941;0.0070710678118654788;0;0;0;0;0
1.2291704139150981;0.0063439328416364585;0;0;0;0;0
1.278337230471702;0.0055557023301960251;0;0;0;0;0
1.3275040470283059;0.0047139673682599784;0;0;0;0;0
1.3766708635849099;0.0038268343236508989;0;0;0;0;0
1.4258376801415138;0.0029028467725446278;0;0;0;0;0
1.4750044966981177;0.001950903220161286;0;0;0;0;0
1.5241713132547217;0.00098017140329560823;0;0;0;0;0
1.5733381298113256;1.2246467991473532e-18;0;0;0;0;0
1.6225049463679295;-0.00098017140329560151;0;0;0;0;0
1.6716717629245335;-0.0019509032201612791;0;0;0;0;0
1.7208385794811374;-0.0029028467725446213;0;0;0;0;0
1.7700053960377413;-0.0038268343236508968;0;0;0;0;0
1.8191722125943453;-0.0047139673682599723;0;0;0;0;0
1.8683390291509492;-0.0055557023301960199;0;0;0;0;0
1.9175058457075531;-0.0063439328416364524;0;0;0;0;0
1.966672662264157;-0.0070710678118654745;0;0;0;0;0
2.015839478820761;-0.0077301045336273669;0;0;0;0;0
2.0650062953773647;-0.0083146961230254474;0;0;0;0;0
2.1141731119339688;-0.0088192126434835493;0;0;0;0;0
2.1633399284905726;-0.0092387953251128647;0;0;0;0;0
2.2125067450471767;-0.0095694033573220892;0;0;0;0;0
2.2616735616037804;-0.0098078528040323031;0;0;0;0;0
2.3108403781603846;-0.0099518472667219689;0;0;0;0;0
2.3600071947169883;-0.01;0;0;0;0;0
2.4091740112735924;-0.0099518472667219689;0;0;0;0;0
2.4583408278301961;-0.0098078528040323066;0;0;0;0;0
2.5075076443868003;-0.0095694033573220892;0;0;0;0;0
2.556674460943404;-0.00923879532511287;0;0;0;0;0
2.6058412775000082;-0.0088192126434835511;0;0;0;0;0
2.6550080940566119;-0.0083146961230254543;0;0;0;0;0
2.704174910613216;-0.0077301045336273687;0;0;0;0;0
2.7533417271698197;-0.0070710678118654771;0;0;0;0;0
2.8025085437264239;-0.0063439328416364594;0;0;0;0;0
2.8516753602830276;-0.0055557023301960294;0;0;0;0;0
2.9008421768396317;-0.0047139673682599793;0;0;0;0;0
2.9500089933962355;-0.0038268343236509041;0;0;0;0;0
2.9991758099528396;-0.0029028467725446252;0;0;0;0;0
3.0483426265094433;-0.0019509032201612873;0;0;0;0;0
3.0975094430660475;-0.00098017140329560498;0;0;0;0;0
3.1466762596226512;-2.4492935982947064e-18;0;0;0;0;0
3.1958430761792549;0.00098017140329559132;0;0;0;0;0
3.245009892735859;0.0019509032201612737;0;0;0;0;0
3.2941767092924628;0.0029028467725446118;0;0;0;0;0
3.3433435258490669;0.0038268343236508911;0;0;0;0;0
3.3925103424056706;0.004713967368259968;0;0;0;0;0
3.4416771589622748;0.0055557023301960181;0;0;0;0;0
3.4908439755188785;0.0063439328416364481;0;0;0;0;0
3.5400107920754826;0.0070710678118654736;0;0;0;0;0
3.5891776086320863;0.007730104533627366;0;0;0;0;0
3.6383444251886905;0.0083146961230254474;0;0;0;0;0
3.6875112417452942;0.0088192126434835441;0;0;0;0;0
3.7366780583018984;0.0092387953251128647;0;0;0;0;0
3.7858448748585021;0.0095694033573220857;0;0;0;0;0
3.8350116914151062;0.0098078528040323031;0;0;0;0;0
3.8841785079717099;0.0099518472667219689;0;0;0;0;0
3.9333453245283141;0.01;0;0;0;0;0
3.9825121410849178;0.0099518472667219689;0;0;0;0;0
4.031678957641522;0.0098078528040323066;0;0;0;0;0
4.0808457741981261;0.0095694033573220875;0;0;0;0;0
4.1300125907547294;0.0092387953251128734;0;0;0;0;0
4.1791794073113335;0.0088192126434835511;0;0;0;0;0
4.2283462238679377;0.008314696123025456;0;0;0;0;0
4.2775130404245418;0.0077301045336273756;0;0;0;0;0
4.3266798569811451;0.007071067811865484;0;0;0;0;0
4.3758466735377493;0.0063439328416364672;0;0;0;0;0
4.4250134900943534;0.0055557023301960233;0;0;0;0;0
4.4741803066509576;0.0047139673682599801;0;0;0;0;0
4.5233471232075608;0.003826834323650905;0;0;0;0;0
4.572513939764165;0.0029028467725446343;0;0;0;0;0
4.6216807563207691;0.0019509032201612798;0;0;0;0;0
4.6708475728773733;0.00098017140329560628;0;0;0;0;0
4.7200143894339766;2.1437508791444563e-17;0;0;0;0;0
4.7691812059905807;-0.00098017140329559891;0;0;0;0;0
4.8183480225471849;-0.0019509032201612726;0;0;0;0;0
4.8675148391037881;-0.0029028467725446105;0;0;0;0;0
4.9166816556603923;-0.003826834323650882;0;0;0;0;0
4.9658484722169964;-0.0047139673682599741;0;0;0;0;0
5.0150152887736006;-0.0055557023301960173;0;0;0;0;0
5.0641821053302039;-0.0063439328416364472;0;0;0;0;0
5.113348921886808;-0.0070710678118654658;0;0;0;0;0
5.1625157384434122;-0.0077301045336273591;0;0;0;0;0
5.2116825550000163;-0.0083146961230254508;0;0;0;0;0
5.2608493715566196;-0.0088192126434835389;0;0;0;0;0
5.3100161881132237;-0.0092387953251128647;0;0;0;0;0
5.3591830046698279;-0.0095694033573220857;0;0;0;0;0
5.408349821226432;-0.0098078528040323049;0;0;0;0;0
5.4575166377830353;-0.0099518472667219672;0;0;0;0;0
5.5066834543396395;-0.01;0;0;0;0;0
5.5558502708962436;-0.0099518472667219689;0;0;0;0;0
5.6050170874528478;-0.0098078528040323066;0;0;0;0;0
5.654183904009451;-0.0095694033573220927;0;0;0;0;0
5.7033507205660552;-0.0092387953251128734;0;0;0;0;0
5.7525175371226593;-0.0088192126434835511;0;0;0;0;0
5.8016843536792635;-0.008314696123025456;0;0;0;0;0
5.8508511702358668;-0.0077301045336273756;0;0;0;0;0
5.9000179867924709;-0.0070710678118654849;0;0;0;0;0
5.9491848033490751;-0.0063439328416364541;0;0;0;0;0
5.9983516199056792;-0.0055557023301960242;0;0;0;0;0
6.0475184364622825;-0.0047139673682599975;0;0;0;0;0
6.0966852530188866;-0.0038268343236509063;0;0;0;0;0
6.1458520695754908;-0.0029028467725446356;0;0;0;0;0
6.1950188861320949;-0.0019509032201612808;0;0;0;0;0
6.2441857026886982;-0.00098017140329562514;0;0;0;0;0
6.2933525192453024;-4.8985871965894128e-18;0;0;0;0;0
6.3425193358019065;0.00098017140329559782;0;0;0;0;0
6.3916861523585098;0.001950903220161254;0;0;0;0;0
6.4408529689151139;0.0029028467725446096;0;0;0;0;0
6.4900197854717181;0.0038268343236508807;0;0;0;0;0
6.5391866020283222;0.0047139673682599732;0;0;0;0;0
6.5883534185849255;0.0055557023301960017;0;0;0;0;0
6.6375202351415297;0.0063439328416364472;0;0;0;0;0
6.6866870516981338;0.0070710678118654658;0;0;0;0;0
6.735853868254738;0.0077301045336273704;0;0;0;0;0
6.7850206848113412;0.0083146961230254422;0;0;0;0;0
6.8341875013679454;0.0088192126434835389;0;0;0;0;0
6.8833543179245495;0.0092387953251128647;0;0;0;0;0
6.9325211344811537;0.0095694033573220857;0;0;0;0;0
6.981687951037757;0.0098078528040323014;0;0;0;0;0
7.0308547675943611;0.0099518472667219672;0;0;0;0;0
7.0800215841509653;0.01;0;0;0;0;0
7.1291884007075694;0.0099518472667219689;0;0;0;0;0
7.1783552172641727;0.0098078528040323066;0;0;0;0;0
7.2275220338207768;0.0095694033573220927;0;0;0;0;0
7.276688850377381;0.0092387953251128752;0;0;0;0;0
7.3258556669339852;0.0088192126434835528;0;0;0;0;0
7.3750224834905884;0.0083146961230254664;0;0;0;0;0
7.4241893000471926;0.0077301045336273765;0;0;0;0;0
7.4733561166037967;0.0070710678118654858;0;0;0;0;0
7.5225229331604009;0.006343932841636455;0;0;0;0;0
7.5716897497170041;0.0055557023301960398;0;0;0;0;0
7.6208565662736083;0.0047139673682599827;0;0;0;0;0
7.6700233828302125;0.0038268343236509072;0;0;0;0;0
7.7191901993868166;0.0029028467725446365;0;0;0;0;0
7.7683570159434199;0.0019509032201612995;0;0;0;0;0
7.817523832500024;0.00098017140329562645;0;0;0;0;0
7.8666906490566282;6.1232339957367663e-18;0;0;0;0;0
7.9158574656132314;-0.00098017140329557896;0;0;0;0;0
7.9650242821698356;-0.00195090322016127;0;0;0;0;0
8.0141910987264389;-0.0029028467725446083;0;0;0;0;0
8.0633579152830439;-0.0038268343236508794;0;0;0;0;0
8.1125247318396472;-0.0047139673682599567;0;0;0;0;0
8.1616915483962522;-0.0055557023301960294;0;0;0;0;0
8.2108583649528555;-0.0063439328416364316;0;0;0;0;0
8.2600251815094587;-0.0070710678118654528;0;0;0;0;0
8.3091919980660638;-0.0077301045336273687;0;0;0;0;0
8.3583588146226671;-0.0083146961230254508;0;0;0;0;0
8.4075256311792703;-0.0088192126434835302;0;0;0;0;0
8.4566924477358754;-0.009238795325112863;0;0;0;0;0
8.5058592642924786;-0.0095694033573220857;0;0;0;0;0
8.5550260808490837;-0.0098078528040323014;0;0;0;0;0
8.6041928974056869;-0.0099518472667219672;0;0;0;0;0
8.6533597139622902;-0.01;0;0;0;0;0
8.7025265305188952;-0.0099518472667219689;0;0;0;0;0
8.7516933470754985;-0.0098078528040323118;0;0;0;0;0
8.8008601636321018;-0.0095694033573220979;0;0;0;0;0
8.8500269801887068;-0.0092387953251128682;0;0;0;0;0
8.8991937967453101;-0.0088192126434835528;0;0;0;0;0
8.9483606133019151;-0.0083146961230254578;0;0;0;0;0
8.9975274298585184;-0.0077301045336273782;0;0;0;0;0
9.0466942464151217;-0.0070710678118654866;0;0;0;0;0
9.0958610629717267;-0.0063439328416364706;0;0;0;0;0
9.14502787952833;-0.0055557023301960407;0;0;0;0;0
9.1941946960849332;-0.0047139673682599992;0;0;0;0;0
9.2433615126415383;-0.0038268343236508924;0;0;0;0;0
9.2925283291981415;-0.0029028467725446551;0;0;0;0;0
9.3416951457547466;-0.0019509032201612834;0;0;0;0;0
9.3908619623113498;-0.00098017140329560997;0;0;0;0;0
9.4400287788679531;-4.2875017582889125e-17;0;0;0;0;0
9.4891955954245581;0.00098017140329559544;0;0;0;0;0
9.5383624119811614;0.0019509032201612689;0;0;0;0;0
9.5875292285377647;0.0029028467725446074;0;0;0;0;0
9.6366960450943697;0.0038268343236508785;0;0;0;0;0
9.685862861650973;0.0047139673682599558;0;0;0;0;0
9.7350296782075763;0.0055557023301959999;0;0;0;0;0
9.7841964947641813;0.0063439328416364585;0;0;0;0;0
9.8333633113207846;0.0070710678118654511;0;0;0;0;0
9.8825301278773896;0.0077301045336273678;0;0;0;0;0
9.9316969444339929;0.0083146961230254491;0;0;0;0;0
9.9808637609905961;0.0088192126434835302;0;0;0;0;0
10.030030577547201;0.009238795325112863;0;0;0;0;0
10.079197394103804;0.009569403357322084;0;0;0;0;0
10.128364210660408;0.0098078528040323014;0;0;0;0;0
10.177531027217013;0.0099518472667219672;0;0;0;0;0
10.226697843773616;0.01;0;0;0;0;0
10.275864660330221;0.0099518472667219689;0;0;0;0;0
10.325031476886824;0.0098078528040323118;0;0;0;0;0
10.374198293443428;0.0095694033573220996;0;0;0;0;0
10.423365110000033;0.0092387953251128682;0;0;0;0;0
10.472531926556636;0.0088192126434835545;0;0;0;0;0
10.521698743113239;0.0083146961230254786;0;0;0;0;0
10.570865559669844;0.0077301045336273791;0;0;0;0;0
10.620032376226447;0.0070710678118654866;0;0;0;0;0
10.669199192783053;0.0063439328416364706;0;0;0;0;0
10.718366009339656;0.0055557023301960416;0;0;0;0;0
10.767532825896259;0.0047139673682600001;0;0;0;0;0
10.816699642452864;0.0038268343236508933;0;0;0;0;0
10.865866459009467;0.002902846772544656;0;0;0;0;0
10.915033275566071;0.0019509032201613194;0;0;0;0;0
10.964200092122676;0.00098017140329561127;0;0;0;0;0
11.013366908679279;8.572527594031472e-18;0;0;0;0;0
11.062533725235882;-0.00098017140329555879;0;0;0;0;0
11.111700541792487;-0.0019509032201612678;0;0;0;0;0
11.16086735834909;-0.0029028467725446057;0;0;0;0;0
11.210034174905696;-0.0038268343236508772;0;0;0;0;0
11.259200991462299;-0.0047139673682599541;0;0;0;0;0
11.308367808018902;-0.0055557023301959982;0;0;0;0;0
11.357534624575507;-0.0063439328416364576;0;0;0;0;0
11.40670144113211;-0.0070710678118654502;0;0;0;0;0
11.455868257688714;-0.0077301045336273444;0;0;0;0;0
11.505035074245319;-0.0083146961230254491;0;0;0;0;0
11.554201890801922;-0.0088192126434835285;0;0;0;0;0
11.603368707358527;-0.009238795325112863;0;0;0;0;0
11.65253552391513;-0.009569403357322084;0;0;0;0;0
11.701702340471734;-0.0098078528040323014;0;0;0;0;0
11.750869157028339;-0.0099518472667219672;0;0;0;0;0
11.800035973584942;-0.01;0;0;0;0;0
11.849202790141545;-0.0099518472667219724;0;0;0;0;0
11.89836960669815;-0.0098078528040323049;0;0;0;0;0
11.947536423254753;-0.0095694033573220996;0;0;0;0;0
11.996703239811358;-0.00923879532511287;0;0;0;0;0
12.045870056367962;-0.0088192126434835545;0;0;0;0;0
12.095036872924565;-0.0083146961230254786;0;0;0;0;0
12.14420368948117;-0.0077301045336273791;0;0;0;0;0
12.193370506037773;-0.0070710678118654884;0;0;0;0;0
12.242537322594377;-0.0063439328416364715;0;0;0;0;0
12.291704139150982;-0.0055557023301960433;0;0;0;0;0
12.340870955707585;-0.0047139673682600018;0;0;0;0;0
12.39003777226419;-0.0038268343236508946;0;0;0;0;0
12.439204588820793;-0.0029028467725446573;0;0;0;0;0
12.488371405377396;-0.0019509032201613205;0;0;0;0;0
12.537538221934001;-0.00098017140329561235;0;0;0;0;0
12.586705038490605;-9.7971743931788255e-18;0;0;0;0;0
12.635871855047208;0.00098017140329555771;0;0;0;0;0
12.685038671603813;0.0019509032201612665;0;0;0;0;0
12.734205488160416;0.0029028467725446044;0;0;0;0;0
12.78337230471702;0.0038268343236508434;0;0;0;0;0
12.832539121273625;0.0047139673682599532;0;0;0;0;0
12.881705937830228;0.0055557023301959973;0;0;0;0;0
12.930872754386833;0.0063439328416364576;0;0;0;0;0
12.980039570943436;0.0070710678118654493;0;0;0;0;0
13.029206387500039;0.0077301045336273444;0;0;0;0;0
13.078373204056644;0.0083146961230254474;0;0;0;0;0
13.127540020613248;0.0088192126434835458;0;0;0;0;0
13.176706837169851;0.0092387953251128491;0;0;0;0;0
13.225873653726456;0.009569403357322084;0;0;0;0;0
13.275040470283059;0.0098078528040322997;0;0;0;0;0
13.324207286839664;0.0099518472667219655;0;0;0;0;0
13.373374103396268;0.01;0;0;0;0;0
13.422540919952871;0.0099518472667219724;0;0;0;0;0
13.471707736509476;0.0098078528040323049;0;0;0;0;0
13.520874553066079;0.0095694033573220996;0;0;0;0;0
13.570041369622682;0.0092387953251128838;0;0;0;0;0
13.619208186179288;0.0088192126434835545;0;0;0;0;0
13.668375002735891;0.0083146961230254786;0;0;0;0;0
13.717541819292496;0.0077301045336273799;0;0;0;0;0
13.766708635849099;0.0070710678118654892;0;0;0;0;0
13.815875452405702;0.0063439328416364724;0;0;0;0;0
13.865042268962307;0.0055557023301960442;0;0;0;0;0
13.914209085518911;0.0047139673682600027;0;0;0;0;0
13.963375902075514;0.0038268343236509284;0;0;0;0;0
14.012542718632119;0.0029028467725446244;0;0;0;0;0
14.061709535188722;0.0019509032201613216;0;0;0;0;0
14.110876351745327;0.00098017140329561365;0;0;0;0;0
14.160043168301931;1.1021821192326179e-17;0;0;0;0;0
14.209209984858534;-0.00098017140329555641;0;0;0;0;0
14.258376801415139;-0.0019509032201612652;0;0;0;0;0
14.307543617971742;-0.0029028467725446035;0;0;0;0;0
14.356710434528345;-0.0038268343236508751;0;0;0;0;0
14.40587725108495;-0.0047139673682599524;0;0;0;0;0
14.455044067641554;-0.0055557023301959964;0;0;0;0;0
14.504210884198157;-0.0063439328416364281;0;0;0;0;0
14.553377700754762;-0.0070710678118654485;0;0;0;0;0
14.602544517311365;-0.0077301045336273435;0;0;0;0;0
14.65171133386797;-0.0083146961230254474;0;0;0;0;0
14.700878150424574;-0.0088192126434835441;0;0;0;0;0
14.750044966981177;-0.0092387953251128474;0;0;0;0;0
14.799211783537782;-0.0095694033573220823;0;0;0;0;0
14.848378600094385;-0.0098078528040322997;0;0;0;0;0
14.897545416650988;-0.009951847266721962;0;0;0;0;0
14.946712233207593;-0.01;0;0;0;0;0
14.995879049764197;-0.0099518472667219724;0;0;0;0;0
15.045045866320802;-0.0098078528040323049;0;0;0;0;0
15.094212682877405;-0.0095694033573221014;0;0;0;0;0
15.143379499434008;-0.0092387953251128838;0;0;0;0;0
15.192546315990613;-0.0088192126434835545;0;0;0;0;0
15.241713132547217;-0.0083146961230254595;0;0;0;0;0
15.29087994910382;-0.0077301045336274033;0;0;0;0;0
15.340046765660425;-0.0070710678118654901;0;0;0;0;0
15.389213582217028;-0.0063439328416364741;0;0;0;0;0
15.438380398773633;-0.005555702330196045;0;0;0;0;0
15.487547215330236;-0.0047139673682600036;0;0;0;0;0
15.53671403188684;-0.0038268343236509297;0;0;0;0;0
15.585880848443445;-0.0029028467725446257;0;0;0;0;0
15.635047665000048;-0.0019509032201613231;0;0;0;0;0
15.684214481556651;-0.00098017140329565008;0;0;0;0;0
15.733381298113256;-1.2246467991473533e-17;0;0;0;0;0
15.78254811466986;0.0009801714032955551;0;0;0;0;0
15.831714931226463;0.0019509032201612292;0;0;0;0;0
15.880881747783068;0.0029028467725446022;0;0;0;0;0
15.930048564339671;0.0038268343236508742;0;0;0;0;0
15.979215380896276;0.0047139673682599506;0;0;0;0;0
16.028382197452878;0.0055557023301959956;0;0;0;0;0
16.077549014009485;0.006343932841636455;0;0;0;0;0
16.126715830566088;0.0070710678118654485;0;0;0;0;0
16.175882647122691;0.007730104533627366;0;0;0;0;0
16.225049463679294;0.0083146961230254265;0;0;0;0;0
16.274216280235898;0.0088192126434835112;0;0;0;0;0
16.323383096792504;0.0092387953251128734;0;0;0;0;0
16.372549913349108;0.0095694033573220823;0;0;0;0;0
16.421716729905711;0.0098078528040322927;0;0;0;0;0
16.470883546462314;0.0099518472667219655;0;0;0;0;0
16.520050363018917;0.01;0;0;0;0;0
16.569217179575524;0.0099518472667219655;0;0;0;0;0
16.618383996132128;0.0098078528040323049;0;0;0;0;0
16.667550812688731;0.0095694033573221014;0;0;0;0;0
16.716717629245334;0.0092387953251128717;0;0;0;0;0
16.765884445801937;0.0088192126434835736;0;0;0;0;0
16.815051262358541;0.0083146961230254994;0;0;0;0;0
16.864218078915147;0.0077301045336273591;0;0;0;0;0
16.913384895471751;0.0070710678118654918;0;0;0;0;0
16.962551712028354;0.0063439328416365027;0;0;0;0;0
17.011718528584957;0.0055557023301960459;0;0;0;0;0
17.060885345141561;0.0047139673682600365;0;0;0;0;0
17.110052161698167;0.0038268343236509306;0;0;0;0;0
17.159218978254771;0.0029028467725446265;0;0;0;0;0
17.208385794811374;0.0019509032201613242;0;0;0;0;0
17.257552611367977;0.00098017140329561604;0;0;0;0;0
17.30671942792458;4.899825157862589e-17;0;0;0;0;0
17.355886244481184;-0.00098017140329551868;0;0;0;0;0
17.40505306103779;-0.0019509032201612978;0;0;0;0;0
17.454219877594394;-0.0029028467725446014;0;0;0;0;0
17.503386694150997;-0.0038268343236508404;0;0;0;0;0
17.5525535107076;-0.0047139673682599498;0;0;0;0;0
