#Time;LinearAccX;LinearAccY;LinearAccZ;AngularAccX;AngularAccY;AngularAccZ
0;0;0;0;0;0;0
0.027808920695665405;0.00098017140329560606;0;0;0;0;0
0.055617841391330809;0.0019509032201612826;0;0;0;0;0
0.083426762086996217;0.0029028467725446235;0;0;0;0;0
0.11123568278266162;0.0038268343236508981;0;0;0;0;0
0.13904460347832703;0.0047139673682599767;0;0;0;0;0
0.16685352417399243;0.0055557023301960216;0;0;0;0;0
0.19466244486965784;0.006343932841636455;0;0;0;0;0
0.22247136556532324;0.0070710678118654745;0;0;0;0;0
0.25028028626098864;0.0077301045336273704;0;0;0;0;0
0.27808920695665407;0.0083146961230254526;0;0;0;0;0
0.30589812765231944;0.0088192126434835511;0;0;0;0;0
0.33370704834798487;0.0092387953251128682;0;0;0;0;0
0.36151596904365024;0.0095694033573220892;0;0;0;0;0
0.38932488973931567;0.0098078528040323049;0;0;0;0;0
0.41713381043498104;0.0099518472667219689;0;0;0;0;0
0.44494273113064647;0.01;0;0;0;0;0
0.4727516518263119;0.0099518472667219689;0;0;0;0;0
0.50056057252197728;0.0098078528040323049;0;0;0;0;0
0.52836949321764271;0.0095694033573220892;0;0;0;0;0
0.55617841391330813;0.0092387953251128682;0;0;0;0;0
0.58398733460897345;0.0088192126434835511;0;0;0;0;0
0.61179625530463888;0.0083146961230254508;0;0;0;0;0
0.63960517600030431;0.0077301045336273678;0;0;0;0;0
0.66741409669596974;0.0070710678118654762;0;0;0;0;0
0.69522301739163517;0.006343932841636455;0;0;0;0;0
0.72303193808730049;0.0055557023301960251;0;0;0;0;0
0.75084085878296591;0.0047139673682599784;0;0;0;0;0
0.77864977947863134;0.0038268343236508989;0;0;0;0;0
0.80645870017429677;0.0029028467725446239;0;0;0;0;0
0.83426762086996209;0.001950903220161286;0;0;0;0;0
0.86207654156562752;0.00098017140329560823;0;0;0;0;0
0.88988546226129295;1.2246467991473532e-18;0;0;0;0;0
0.91769438295695838;-0.00098017140329560585;0;0;0;0;0
0.94550330365262381;-0.0019509032201612837;0;0;0;0;0
0.97331222434828912;-0.0029028467725446213;0;0;0;0;0
1.0011211450439546;-0.0038268343236508968;0;0;0;0;0
1.0289300657396199;-0.0047139673682599723;0;0;0;0;0
1.0567389864352854;-0.0055557023301960233;0;0;0;0;0
1.0845479071309507;-0.0063439328416364524;0;0;0;0;0
1.1123568278266163;-0.0070710678118654771;0;0;0;0;0
1.1401657485222816;-0.0077301045336273721;0;0;0;0;0
1.1679746692179469;-0.0083146961230254526;0;0;0;0;0
1.1957835899136124;-0.0088192126434835528;0;0;0;0;0
1.2235925106092778;-0.0092387953251128682;0;0;0;0;0
1.2514014313049433;-0.0095694033573220892;0;0;0;0;0
1.2792103520006086;-0.0098078528040323049;0;0;0;0;0
1.3070192726962739;-0.0099518472667219689;0;0;0;0;0
1.3348281933919395;-0.01;0;0;0;0;0
1.3626371140876048;-0.0099518472667219689;0;0;0;0;0
1.3904460347832703;-0.0098078528040323049;0;0;0;0;0
1.4182549554789357;-0.0095694033573220892;0;0;0;0;0
1.446063876174601;-0.00923879532511287;0;0;0;0;0
1.4738727968702665;-0.0088192126434835511;0;0;0;0;0
1.5016817175659318;-0.0083146961230254543;0;0;0;0;0
1.5294906382615971;-0.0077301045336273747;0;0;0;0;0
1.5572995589572627;-0.0070710678118654771;0;0;0;0;0
1.585108479652928;-0.0063439328416364594;0;0;0;0;0
1.6129174003485935;-0.0055557023301960216;0;0;0;0;0
1.6407263210442589;-0.0047139673682599793;0;0;0;0;0
1.6685352417399242;-0.0038268343236509041;0;0;0;0;0
1.6963441624355897;-0.0029028467725446252;0;0;0;0;0
1.724153083131255;-0.0019509032201612873;0;0;0;0;0
1.7519620038269206;-0.00098017140329560498;0;0;0;0;0
1.7797709245225859;-2.4492935982947064e-18;0;0;0;0;0
1.8075798452182512;0.00098017140329560021;0;0;0;0;0
1.8353887659139168;0.0019509032201612826;0;0;0;0;0
1.8631976866095821;0.00290284677254462;0;0;0;0;0
1.8910066073052476;0.0038268343236508994;0;0;0;0;0
1.9188155280009129;0.0047139673682599758;0;0;0;0;0
1.9466244486965782;0.0055557023301960181;0;0;0;0;0
1.9744333693922438;0.0063439328416364559;0;0;0;0;0
2.0022422900879091;0.0070710678118654736;0;0;0;0;0
2.0300512107835744;0.007730104533627366;0;0;0;0;0
2.0578601314792397;0.0083146961230254474;0;0;0;0;0
2.0856690521749055;0.0088192126434835528;0;0;0;0;0
2.1134779728705708;0.0092387953251128682;0;0;0;0;0
2.1412868935662361;0.0095694033573220892;0;0;0;0;0
2.1690958142619015;0.0098078528040323031;0;0;0;0;0
2.1969047349575668;0.0099518472667219689;0;0;0;0;0
2.2247136556532325;0.01;0;0;0;0;0
2.2525225763488979;0.0099518472667219689;0;0;0;0;0
2.2803314970445632;0.0098078528040323031;0;0;0;0;0
2.3081404177402285;0.0095694033573220875;0;0;0;0;0
2.3359493384358938;0.0092387953251128682;0;0;0;0;0
2.3637582591315596;0.0088192126434835424;0;0;0;0;0
2.3915671798272249;0.0083146961230254456;0;0;0;0;0
2.4193761005228902;0.0077301045336273643;0;0;0;0;0
2.4471850212185555;0.007071067811865471;0;0;0;0;0
2.4749939419142208;0.0063439328416364541;0;0;0;0;0
2.5028028626098866;0.0055557023301960233;0;0;0;0;0
2.5306117833055519;0.0047139673682599645;0;0;0;0;0
2.5584207040012172;0.003826834323650889;0;0;0;0;0
2.5862296246968826;0.0029028467725446178;0;0;0;0;0
2.6140385453925479;0.0019509032201612798;0;0;0;0;0
2.6418474660882136;0.00098017140329560628;0;0;0;0;0
2.669656386783879;3.6739403974420592e-18;0;0;0;0;0
2.6974653074795443;-0.00098017140329559891;0;0;0;0;0
2.7252742281752096;-0.0019509032201612899;0;0;0;0;0
2.7530831488708749;-0.0029028467725446278;0;0;0;0;0
2.7808920695665407;-0.0038268343236508985;0;0;0;0;0
2.808700990262206;-0.0047139673682599741;0;0;0;0;0
2.8365099109578713;-0.0055557023301960173;0;0;0;0;0
2.8643188316535366;-0.0063439328416364472;0;0;0;0;0
2.8921277523492019;-0.0070710678118654658;0;0;0;0;0
2.9199366730448677;-0.0077301045336273713;0;0;0;0;0
2.947745593740533;-0.0083146961230254508;0;0;0;0;0
2.9755545144361983;-0.0088192126434835493;0;0;0;0;0
3.0033634351318637;-0.0092387953251128647;0;0;0;0;0
3.031172355827529;-0.0095694033573220857;0;0;0;0;0
3.0589812765231943;-0.0098078528040323014;0;0;0;0;0
3.0867901972188601;-0.0099518472667219689;0;0;0;0;0
3.1145991179145254;-0.01;0;0;0;0;0
3.1424080386101907;-0.0099518472667219689;0;0;0;0;0
3.170216959305856;-0.0098078528040323066;0;0;0;0;0
3.1980258800015213;-0.0095694033573220927;0;0;0;0;0
3.2258348006971871;-0.0092387953251128682;0;0;0;0;0
3.2536437213928524;-0.0088192126434835511;0;0;0;0;0
3.2814526420885177;-0.008314696123025456;0;0;0;0;0
3.309261562784183;-0.0077301045336273756;0;0;0;0;0
3.3370704834798484;-0.0070710678118654849;0;0;0;0;0
3.3648794041755141;-0.0063439328416364541;0;0;0;0;0
3.3926883248711794;-0.0055557023301960242;0;0;0;0;0
3.4204972455668448;-0.0047139673682599819;0;0;0;0;0
3.4483061662625101;-0.0038268343236509063;0;0;0;0;0
3.4761150869581754;-0.0029028467725446356;0;0;0;0;0
3.5039240076538412;-0.0019509032201612808;0;0;0;0;0
3.5317329283495065;-0.00098017140329560758;0;0;0;0;0
3.5595418490451718;-4.8985871965894128e-18;0;0;0;0;0
3.5873507697408371;0.00098017140329559782;0;0;0;0;0
3.6151596904365024;0.0019509032201612715;0;0;0;0;0
3.6429686111321682;0.0029028467725446261;0;0;0;0;0
3.6707775318278335;0.0038268343236508972;0;0;0;0;0
3.6985864525234988;0.0047139673682599732;0;0;0;0;0
3.7263953732191641;0.0055557023301960164;0;0;0;0;0
3.7542042939148295;0.0063439328416364472;0;0;0;0;0
3.7820132146104952;0.0070710678118654779;0;0;0;0;0
3.8098221353061605;0.0077301045336273704;0;0;0;0;0
3.8376310560018259;0.0083146961230254508;0;0;0;0;0
3.8654399766974912;0.0088192126434835476;0;0;0;0;0
3.8932488973931565;0.0092387953251128647;0;0;0;0;0
3.9210578180888223;0.0095694033573220909;0;0;0;0;0
3.9488667387844876;0.0098078528040323049;0;0;0;0;0
3.9766756594801529;0.0099518472667219689;0;0;0;0;0
4.0044845801758182;0.01;0;0;0;0;0
4.032293500871484;0.0099518472667219689;0;0;0;0;0
4.0601024215671488;0.0098078528040323066;0;0;0;0;0
4.0879113422628146;0.0095694033573220892;0;0;0;0;0
4.1157202629584795;0.0092387953251128752;0;0;0;0;0
4.1435291836541452;0.0088192126434835528;0;0;0;0;0
4.171338104349811;0.0083146961230254474;0;0;0;0;0
4.1991470250454759;0.0077301045336273765;0;0;0;0;0
4.2269559457411416;0.0070710678118654736;0;0;0;0;0
4.2547648664368065;0.0063439328416364698;0;0;0;0;0
4.2825737871324723;0.0055557023301960251;0;0;0;0;0
4.310382707828138;0.0047139673682599671;0;0;0;0;0
4.3381916285238029;0.0038268343236509072;0;0;0;0;0
4.3660005492194687;0.00290284677254462;0;0;0;0;0
4.3938094699151335;0.0019509032201612995;0;0;0;0;0
4.4216183906107993;0.00098017140329560888;0;0;0;0;0
4.4494273113064651;-1.164033439826574e-17;0;0;0;0;0
4.4772362320021299;-0.00098017140329559652;0;0;0;0;0
4.5050451526977957;-0.0019509032201612876;0;0;0;0;0
4.5328540733934606;-0.0029028467725446083;0;0;0;0;0
4.5606629940891263;-0.0038268343236509124;0;0;0;0;0
4.5884719147847921;-0.0047139673682599879;0;0;0;0;0
4.616280835480457;-0.0055557023301960294;0;0;0;0;0
4.6440897561761227;-0.0063439328416364594;0;0;0;0;0
4.6718986768717876;-0.0070710678118654771;0;0;0;0;0
4.6997075975674534;-0.0077301045336273687;0;0;0;0;0
4.7275165182631191;-0.0083146961230254699;0;0;0;0;0
4.755325438958784;-0.0088192126434835476;0;0;0;0;0
4.7831343596544498;-0.0092387953251128769;0;0;0;0;0
4.8109432803501146;-0.0095694033573220857;0;0;0;0;0
4.8387522010457804;-0.0098078528040323083;0;0;0;0;0
4.8665611217414462;-0.0099518472667219707;0;0;0;0;0
4.894370042437111;-0.01;0;0;0;0;0
4.9221789631327768;-0.0099518472667219689;0;0;0;0;0
4.9499878838284417;-0.0098078528040323031;0;0;0;0;0
4.9777968045241074;-0.0095694033573220892;0;0;0;0;0
5.0056057252197732;-0.0092387953251128682;0;0;0;0;0
5.0334146459154381;-0.0088192126434835528;0;0;0;0;0
5.0612235666111038;-0.0083146961230254387;0;0;0;0;0
5.0890324873067687;-0.0077301045336273782;0;0;0;0;0
5.1168414080024345;-0.0070710678118654615;0;0;0;0;0
5.1446503286981002;-0.0063439328416364429;0;0;0;0;0
5.1724592493937651;-0.0055557023301960121;0;0;0;0;0
5.2002681700894309;-0.004713967368259968;0;0;0;0;0
5.2280770907850957;-0.0038268343236508924;0;0;0;0;0
5.2558860114807615;-0.0029028467725446213;0;0;0;0;0
5.2836949321764273;-0.0019509032201612834;0;0;0;0;0
5.3115038528720921;-0.00098017140329560997;0;0;0;0;0
5.3393127735677579;-7.3478807948841184e-18;0;0;0;0;0
5.3671216942634228;0.00098017140329559544;0;0;0;0;0
5.3949306149590885;0.0019509032201612689;0;0;0;0;0
5.4227395356547543;0.0029028467725446413;0;0;0;0;0
5.4505484563504192;0.0038268343236509111;0;0;0;0;0
5.4783573770460849;0.0047139673682599862;0;0;0;0;0
5.5061662977417498;0.0055557023301960285;0;0;0;0;0
5.5339752184374156;0.0063439328416364585;0;0;0;0;0
5.5617841391330813;0.0070710678118654762;0;0;0;0;0
5.5895930598287462;0.0077301045336273678;0;0;0;0;0
5.617401980524412;0.0083146961230254491;0;0;0;0;0
5.6452109012200768;0.0088192126434835458;0;0;0;0;0
5.6730198219157426;0.009238795325112863;0;0;0;0;0
5.7008287426114084;0.0095694033573220944;0;0;0;0;0
5.7286376633070732;0.0098078528040323014;0;0;0;0;0
5.756446584002739;0.0099518472667219707;0;0;0;0;0
5.7842555046984039;0.01;0;0;0;0;0
5.8120644253940696;0.0099518472667219689;0;0;0;0;0
5.8398733460897354;0.0098078528040323049;0;0;0;0;0
5.8676822667854003;0.0095694033573220892;0;0;0;0;0
5.895491187481066;0.0092387953251128682;0;0;0;0;0
5.9233001081767309;0.0088192126434835545;0;0;0;0;0
5.9511090288723967;0.0083146961230254578;0;0;0;0;0
5.9789179495680616;0.0077301045336273791;0;0;0;0;0
6.0067268702637273;0.0070710678118654866;0;0;0;0;0
6.0345357909593931;0.0063439328416364437;0;0;0;0;0
6.0623447116550579;0.0055557023301960416;0;0;0;0;0
6.0901536323507237;0.0047139673682599697;0;0;0;0;0
6.1179625530463886;0.0038268343236509262;0;0;0;0;0
6.1457714737420543;0.0029028467725446222;0;0;0;0;0
6.1735803944377201;0.0019509032201612845;0;0;0;0;0
6.201389315133385;0.00098017140329561127;0;0;0;0;0
6.2291982358290507;8.572527594031472e-18;0;0;0;0;0
6.2570071565247156;-0.00098017140329559414;0;0;0;0;0
6.2848160772203814;-0.0019509032201612678;0;0;0;0;0
6.3126249979160471;-0.00290284677254464;0;0;0;0;0
6.340433918611712;-0.0038268343236508772;0;0;0;0;0
6.3682428393073778;-0.0047139673682599853;0;0;0;0;0
6.3960517600030427;-0.0055557023301959982;0;0;0;0;0
6.4238606806987084;-0.0063439328416364576;0;0;0;0;0
6.4516696013943742;-0.0070710678118654762;0;0;0;0;0
6.479478522090039;-0.0077301045336273678;0;0;0;0;0
6.5072874427857048;-0.0083146961230254491;0;0;0;0;0
6.5350963634813697;-0.0088192126434835458;0;0;0;0;0
6.5629052841770354;-0.009238795325112863;0;0;0;0;0
6.5907142048727012;-0.0095694033573220944;0;0;0;0;0
6.6185231255683661;-0.0098078528040323014;0;0;0;0;0
6.6463320462640318;-0.0099518472667219707;0;0;0;0;0
6.6741409669596967;-0.01;0;0;0;0;0
6.7019498876553625;-0.0099518472667219689;0;0;0;0;0
6.7297588083510282;-0.0098078528040323049;0;0;0;0;0
6.7575677290466931;-0.0095694033573220892;0;0;0;0;0
6.7853766497423589;-0.00923879532511287;0;0;0;0;0
6.8131855704380238;-0.0088192126434835545;0;0;0;0;0
6.8409944911336895;-0.0083146961230254595;0;0;0;0;0
6.8688034118293553;-0.0077301045336273565;0;0;0;0;0
6.8966123325250202;-0.0070710678118654884;0;0;0;0;0
6.9244212532206859;-0.0063439328416364437;0;0;0;0;0
6.9522301739163508;-0.0055557023301960433;0;0;0;0;0
6.9800390946120165;-0.0047139673682599706;0;0;0;0;0
7.0078480153076823;-0.0038268343236508946;0;0;0;0;0
7.0356569360033472;-0.0029028467725446235;0;0;0;0;0
7.0634658566990129;-0.0019509032201612858;0;0;0;0;0
7.0912747773946778;-0.00098017140329561235;0;0;0;0;0
7.1190836980903436;-9.7971743931788255e-18;0;0;0;0;0
7.1468926187860093;0.00098017140329562818;0;0;0;0;0
7.1747015394816742;0.0019509032201612665;0;0;0;0;0
7.20251046017734;0.0029028467725446391;0;0;0;0;0
7.2303193808730049;0.0038268343236508764;0;0;0;0;0
7.2581283015686706;0.0047139673682599845;0;0;0;0;0
7.2859372222643364;0.0055557023301960277;0;0;0;0;0
7.3137461429600013;0.0063439328416364576;0;0;0;0;0
7.341555063655667;0.0070710678118654745;0;0;0;0;0
7.3693639843513319;0.0077301045336273669;0;0;0;0;0
7.3971729050469976;0.0083146961230254474;0;0;0;0;0
7.4249818257426634;0.0088192126434835615;0;0;0;0;0
7.4527907464383283;0.0092387953251128613;0;0;0;0;0
7.480599667133994;0.0095694033573220944;0;0;0;0;0
7.5084085878296589;0.0098078528040322997;0;0;0;0;0
7.5362175085253247;0.0099518472667219707;0;0;0;0;0
7.5640264292209904;0.01;0;0;0;0;0
7.5918353499166553;0.0099518472667219689;0;0;0;0;0
7.6196442706123211;0.0098078528040323049;0;0;0;0;0
7.647453191307986;0.0095694033573220892;0;0;0;0;0
7.6752621120036517;0.00923879532511287;0;0;0;0;0
7.7030710326993175;0.0088192126434835389;0;0;0;0;0
7.7308799533949824;0.0083146961230254595;0;0;0;0;0
7.7586888740906481;0.0077301045336273582;0;0;0;0;0
7.786497794786313;0.0070710678118654892;0;0;0;0;0
7.8143067154819787;0.0063439328416364446;0;0;0;0;0
7.8421156361776445;0.0055557023301960155;0;0;0;0;0
7.8699245568733094;0.0047139673682599715;0;0;0;0;0
7.8977334775689751;0.0038268343236508959;0;0;0;0;0
7.92554239826464;0.0029028467725446244;0;0;0;0;0
7.9533513189603058;0.0019509032201612869;0;0;0;0;0
7.9811602396559715;0.00098017140329557831;0;0;0;0;0
8.0089691603516364;1.1021821192326179e-17;0;0;0;0;0
8.0367780810473022;-0.0009801714032956271;0;0;0;0;0
8.0645870017429679;-0.0019509032201612999;0;0;0;0;0
8.0923959224386319;-0.0029028467725446035;0;0;0;0;0
8.1202048431342977;-0.0038268343236508751;0;0;0;0;0
8.1480137638299635;-0.0047139673682599836;0;0;0;0;0
8.1758226845256292;-0.0055557023301960259;0;0;0;0;0
8.203631605221295;-0.0063439328416364828;0;0;0;0;0
8.231440525916959;-0.0070710678118654485;0;0;0;0;0
8.2592494466126247;-0.007730104533627366;0;0;0;0;0
8.2870583673082905;-0.0083146961230254474;0;0;0;0;0
8.3148672880039562;-0.0088192126434835615;0;0;0;0;0
8.342676208699622;-0.0092387953251128752;0;0;0;0;0
8.370485129395286;-0.0095694033573220823;0;0;0;0;0
8.3982940500909518;-0.0098078528040322997;0;0;0;0;0
8.4261029707866175;-0.0099518472667219689;0;0;0;0;0
8.4539118914822833;-0.01;0;0;0;0;0
8.481720812177949;-0.0099518472667219655;0;0;0;0;0
8.509529732873613;-0.0098078528040323118;0;0;0;0;0
8.5373386535692788;-0.0095694033573220892;0;0;0;0;0
8.5651475742649446;-0.0092387953251128717;0;0;0;0;0
8.5929564949606103;-0.0088192126434835389;0;0;0;0;0
8.6207654156562761;-0.0083146961230254404;0;0;0;0;0
8.6485743363519401;-0.0077301045336273808;0;0;0;0;0
8.6763832570476058;-0.0070710678118654901;0;0;0;0;0
8.7041921777432716;-0.0063439328416364463;0;0;0;0;0
8.7320010984389373;-0.0055557023301960155;0;0;0;0;0
8.7598100191346031;-0.0047139673682599411;0;0;0;0;0
8.7876189398302671;-0.0038268343236509297;0;0;0;0;0
8.8154278605259329;-0.0029028467725446257;0;0;0;0;0
8.8432367812215986;-0.001950903220161288;0;0;0;0;0
8.8710457019172644;-0.00098017140329557961;0;0;0;0;0
8.8988546226129301;2.328066879653148e-17;0;0;0;0;0
8.9266635433085941;0.00098017140329559045;0;0;0;0;0
8.9544724640042599;0.0019509032201612641;0;0;0;0;0
8.9822813846999257;0.0029028467725446361;0;0;0;0;0
9.0100903053955914;0.0038268343236509067;0;0;0;0;0
9.0378992260912572;0.004713967368260014;0;0;0;0;0
9.0657081467869212;0.0055557023301959956;0;0;0;0;0
9.0935170674825869;0.006343932841636455;0;0;0;0;0
9.1213259881782527;0.0070710678118654979;0;0;0;0;0
9.1491349088739184;0.007730104533627366;0;0;0;0;0
9.1769438295695842;0.0083146961230254664;0;0;0;0;0
9.2047527502652482;0.0088192126434835441;0;0;0;0;0
9.232561670960914;0.0092387953251128734;0;0;0;0;0
9.2603705916565797;0.0095694033573220823;0;0;0;0;0
9.2881795123522455;0.0098078528040323066;0;0;0;0;0
9.3159884330479112;0.0099518472667219724;0;0;0;0;0
9.3437973537435752;0.01;0;0;0;0;0
9.371606274439241;0.0099518472667219724;0;0;0;0;0
9.3994151951349068;0.0098078528040323049;0;0;0;0;0
9.4272241158305725;0.0095694033573220788;0;0;0;0;0
9.4550330365262383;0.0092387953251128439;0;0;0;0;0
9.4828419572219023;0.0088192126434835736;0;0;0;0;0
9.510650877917568;0.0083146961230254612;0;0;0;0;0
9.5384597986132338;0.0077301045336273591;0;0;0;0;0
9.5662687193088995;0.0070710678118654407;0;0;0;0;0
9.5940776400045653;0.0063439328416364472;0;0;0;0;0
9.6218865607002293;0.0055557023301960459;0;0;0;0;0
9.6496954813958951;0.0047139673682599741;0;0;0;0;0
9.6775044020915608;0.0038268343236508651;0;0;0;0;0
9.7053133227872266;0.0029028467725446265;0;0;0;0;0
9.7331222434828923;0.0019509032201612544;0;0;0;0;0
9.7609311641785563;0.00098017140329561604;0;0;0;0;0
9.7887400848742221;-2.2056021997384124e-17;0;0;0;0;0
9.8165490055698879;-0.00098017140329558937;0;0;0;0;0
9.8443579262655536;-0.0019509032201612978;0;0;0;0;0
9.8721668469612194;-0.0029028467725446695;0;0;0;0;0
9.8999757676568834;-0.0038268343236509059;0;0;0;0;0
9.9277846883525491;-0.0047139673682599498;0;0;0;0;0
9.9555936090482149;-0.0055557023301960242;0;0;0;0;0
9.9834025297438806;-0.0063439328416364819;0;0;0;0;0
10.011211450439546;-0.007071067811865471;0;0;0;0;0
10.03902037113521;-0.0077301045336273426;0;0;0;0;0
10.066829291830876;-0.0083146961230254456;0;0;0;0;0
10.094638212526542;-0.0088192126434835615;0;0;0;0;0
10.122447133222208;-0.0092387953251128873;0;0;0;0;0
10.150256053917873;-0.0095694033573220927;0;0;0;0;0
10.178064974613537;-0.0098078528040322997;0;0;0;0;0
10.205873895309203;-0.0099518472667219689;0;0;0;0;0
10.233682816004869;-0.01;0;0;0;0;0
10.261491736700535;-0.0099518472667219689;0;0;0;0;0
10.2893006573962;-0.0098078528040322979;0;0;0;0;0
10.317109578091864;-0.0095694033573220909;0;0;0;0;0
10.34491849878753;-0.0092387953251128578;0;0;0;0;0
10.372727419483196;-0.0088192126434835563;0;0;0;0;0
10.400536340178862;-0.0083146961230254422;0;0;0;0;0
10.428345260874528;-0.0077301045336273366;0;0;0;0;0
10.456154181570191;-0.0070710678118654667;0;0;0;0;0
10.483963102265857;-0.0063439328416364758;0;0;0;0;0
10.511772022961523;-0.0055557023301960173;0;0;0;0;0
10.539580943657189;-0.0047139673682599428;0;0;0;0;0
10.567389864352855;-0.0038268343236508989;0;0;0;0;0
10.595198785048519;-0.0029028467725446621;0;0;0;0;0
10.623007705744184;-0.0019509032201612906;0;0;0;0;0
10.65081662643985;-0.00098017140329558199;0;0;0;0;0
10.678625547135516;-1.4695761589768237e-17;0;0;0;0;0
10.706434467831182;0.00098017140329562341;0;0;0;0;0
10.734243388526846;0.0019509032201612618;0;0;0;0;0
10.762052309222511;0.0029028467725446339;0;0;0;0;0
10.789861229918177;0.0038268343236508716;0;0;0;0;0
10.817670150613843;0.0047139673682599801;0;0;0;0;0
10.845479071309509;0.005555702330196052;0;0;0;0;0
10.873287992005173;0.0063439328416364524;0;0;0;0;0
10.901096912700838;0.0070710678118654962;0;0;0;0;0
10.928905833396504;0.0077301045336273634;0;0;0;0;0
10.95671475409217;0.0083146961230254647;0;0;0;0;0
10.984523674787836;0.0088192126434835771;0;0;0;0;0
11.0123325954835;0.0092387953251128734;0;0;0;0;0
11.040141516179165;0.0095694033573220823;0;0;0;0;0
11.067950436874831;0.0098078528040323066;0;0;0;0;0
11.095759357570497;0.0099518472667219724;0;0;0;0;0
11.123568278266163;0.01;0;0;0;0;0
11.151377198961827;0.0099518472667219724;0;0;0;0;0
11.179186119657492;0.0098078528040323049;0;0;0;0;0
11.206995040353158;0.0095694033573220805;0;0;0;0;0
11.234803961048824;0.0092387953251128717;0;0;0;0;0
11.26261288174449;0.0088192126434835406;0;0;0;0;0
11.290421802440154;0.008314696123025463;0;0;0;0;0
11.318230723135819;0.00773010453362736;0;0;0;0;0
11.346039643831485;0.0070710678118654927;0;0;0;0;0
11.373848564527151;0.0063439328416364498;0;0;0;0;0
11.401657485222817;0.0055557023301959895;0;0;0;0;0
11.429466405918481;0.0047139673682599758;0;0;0;0;0
11.457275326614146;0.0038268343236509328;0;0;0;0;0
11.485084247309812;0.0029028467725446296;0;0;0;0;0
11.512893168005478;0.001950903220161257;0;0;0;0;0
11.540702088701144;0.00098017140329554773;0;0;0;0;0
11.568511009396808;5.1447545176920603e-17;0;0;0;0;0
11.596319930092474;-0.00098017140329558698;0;0;0;0;0
11.624128850788139;-0.0019509032201612954;0;0;0;0;0
11.651937771483805;-0.0029028467725446669;0;0;0;0;0
11.679746692179471;-0.0038268343236509033;0;0;0;0;0
11.707555612875135;-0.004713967368259948;0;0;0;0;0
11.735364533570801;-0.0055557023301960216;0;0;0;0;0
11.763173454266466;-0.0063439328416364793;0;0;0;0;0
11.790982374962132;-0.0070710678118654701;0;0;0;0;0
11.818791295657798;-0.007730104533627386;0;0;0;0;0
11.846600216353462;-0.0083146961230254439;0;0;0;0;0
11.874409137049128;-0.008819212643483558;0;0;0;0;0
11.902218057744793;-0.0092387953251128595;0;0;0;0;0
11.930026978440459;-0.0095694033573220909;0;0;0;0;0
11.957835899136123;-0.0098078528040322997;0;0;0;0;0
11.985644819831789;-0.0099518472667219689;0;0;0;0;0
12.013453740527455;-0.01;0;0;0;0;0
12.04126266122312;-0.0099518472667219689;0;0;0;0;0
12.069071581918786;-0.0098078528040322997;0;0;0;0;0
12.09688050261445;-0.0095694033573220909;0;0;0;0;0
12.124689423310116;-0.0092387953251128873;0;0;0;0;0
12.152498344005782;-0.008819212643483558;0;0;0;0;0
12.180307264701447;-0.0083146961230254439;0;0;0;0;0
12.208116185397113;-0.0077301045336273392;0;0;0;0;0
12.235925106092777;-0.0070710678118655196;0;0;0;0;0
12.263734026788443;-0.0063439328416364776;0;0;0;0;0
12.291542947484109;-0.0055557023301960199;0;0;0;0;0
12.319351868179774;-0.0047139673682599454;0;0;0;0;0
12.34716078887544;-0.0038268343236509011;0;0;0;0;0
12.374969709571104;-0.0029028467725446643;0;0;0;0;0
12.40277863026677;-0.0019509032201612928;0;0;0;0;0
12.430587550962436;-0.00098017140329558438;0;0;0;0;0
12.458396471658101;-1.7145055188062944e-17;0;0;0;0;0
12.486205392353767;0.00098017140329562102;0;0;0;0;0
12.514014313049431;0.0019509032201612592;0;0;0;0;0
12.541823233745097;0.0029028467725446317;0;0;0;0;0
12.569632154440763;0.0038268343236508694;0;0;0;0;0
12.597441075136429;0.0047139673682599784;0;0;0;0;0
12.625249995832094;0.0055557023301960511;0;0;0;0;0
12.653058916527758;0.0063439328416364507;0;0;0;0;0
12.680867837223424;0.0070710678118654433;0;0;0;0;0
12.70867675791909;0.0077301045336273626;0;0;0;0;0
12.736485678614756;0.008314696123025463;0;0;0;0;0
12.764294599310421;0.0088192126434835753;0;0;0;0;0
12.792103520006085;0.0092387953251128457;0;0;0;0;0
12.819912440701751;0.0095694033573220823;0;0;0;0;0
12.847721361397417;0.0098078528040323049;0;0;0;0;0
12.875530282093083;0.0099518472667219724;0;0;0;0;0
12.903339202788748;0.01;0;0;0;0;0
12.931148123484412;0.0099518472667219724;0;0;0;0;0
12.958957044180078;0.0098078528040323049;0;0;0;0;0
12.986765964875744;0.0095694033573220823;0;0;0;0;0
13.01457488557141;0.0092387953251128734;0;0;0;0;0
13.042383806267075;0.0088192126434835424;0;0;0;0;0
13.070192726962739;0.008314696123025463;0;0;0;0;0
13.098001647658405;0.0077301045336273626;0;0;0;0;0
13.125810568354071;0.0070710678118654944;0;0;0;0;0
13.153619489049737;0.0063439328416364507;0;0;0;0;0
13.181428409745402;0.0055557023301959904;0;0;0;0;0
13.209237330441066;0.0047139673682599784;0;0;0;0;0
13.237046251136732;0.0038268343236509349;0;0;0;0;0
13.264855171832398;0.0029028467725446317;0;0;0;0;0
13.292664092528064;0.0019509032201612592;0;0;0;0;0
13.320473013223729;0.00098017140329555033;0;0;0;0;0
13.348281933919393;5.3896838775215304e-17;0;0;0;0;0
13.376090854615059;-0.00098017140329558438;0;0;0;0;0
13.403899775310725;-0.001950903220161293;0;0;0;0;0
13.431708696006391;-0.0029028467725446643;0;0;0;0;0
13.459517616702056;-0.0038268343236509011;0;0;0;0;0
