#Time;LinearAccX;LinearAccY;LinearAccZ;AngularAccX;AngularAccY;AngularAccZ
0;0;0;0;0;0;0
0.010281316328002757;0.00098017140329560606;0;0;0;0;0
0.020562632656005515;0.0019509032201612826;0;0;0;0;0
0.030843948984008274;0.0029028467725446235;0;0;0;0;0
0.041125265312011029;0.0038268343236508981;0;0;0;0;0
0.051406581640013785;0.0047139673682599767;0;0;0;0;0
0.061687897968016547;0.0055557023301960216;0;0;0;0;0
0.071969214296019296;0.006343932841636455;0;0;0;0;0
0.082250530624022059;0.0070710678118654745;0;0;0;0;0
0.092531846952024821;0.0077301045336273704;0;0;0;0;0
0.10281316328002757;0.0083146961230254526;0;0;0;0;0
0.11309447960803033;0.0088192126434835511;0;0;0;0;0
0.12337579593603309;0.0092387953251128682;0;0;0;0;0
0.13365711226403584;0.0095694033573220892;0;0;0;0;0
0.14393842859203859;0.0098078528040323049;0;0;0;0;0
0.15421974492004137;0.0099518472667219689;0;0;0;0;0
0.16450106124804412;0.01;0;0;0;0;0
0.17478237757604687;0.0099518472667219689;0;0;0;0;0
0.18506369390404964;0.0098078528040323049;0;0;0;0;0
0.19534501023205239;0.0095694033573220892;0;0;0;0;0
0.20562632656005514;0.0092387953251128682;0;0;0;0;0
0.21590764288805792;0.0088192126434835511;0;0;0;0;0
0.22618895921606066;0.0083146961230254508;0;0;0;0;0
0.23647027554406341;0.0077301045336273713;0;0;0;0;0
0.24675159187206619;0.0070710678118654762;0;0;0;0;0
0.25703290820006891;0.0063439328416364585;0;0;0;0;0
0.26731422452807169;0.0055557023301960216;0;0;0;0;0
0.27759554085607446;0.0047139673682599741;0;0;0;0;0
0.28787685718407718;0.0038268343236508989;0;0;0;0;0
0.29815817351207996;0.0029028467725446239;0;0;0;0;0
0.30843948984008274;0.0019509032201612817;0;0;0;0;0
0.31872080616808546;0.00098017140329560823;0;0;0;0;0
0.32900212249608823;1.2246467991473532e-18;0;0;0;0;0
0.33928343882409101;-0.00098017140329560585;0;0;0;0;0
0.34956475515209373;-0.0019509032201612791;0;0;0;0;0
0.35984607148009651;-0.0029028467725446257;0;0;0;0;0
0.37012738780809928;-0.0038268343236509007;0;0;0;0;0
0.380408704136102;-0.0047139673682599767;0;0;0;0;0
0.39069002046410478;-0.0055557023301960233;0;0;0;0;0
0.40097133679210756;-0.0063439328416364559;0;0;0;0;0
0.41125265312011028;-0.0070710678118654745;0;0;0;0;0
0.42153396944811306;-0.0077301045336273721;0;0;0;0;0
0.43181528577611583;-0.0083146961230254526;0;0;0;0;0
0.44209660210411855;-0.0088192126434835493;0;0;0;0;0
0.45237791843212133;-0.0092387953251128682;0;0;0;0;0
0.46265923476012411;-0.0095694033573220892;0;0;0;0;0
0.47294055108812683;-0.0098078528040323031;0;0;0;0;0
0.4832218674161296;-0.0099518472667219689;0;0;0;0;0
0.49350318374413238;-0.01;0;0;0;0;0
0.50378450007213516;-0.0099518472667219689;0;0;0;0;0
0.51406581640013782;-0.0098078528040323066;0;0;0;0;0
0.5243471327281406;-0.0095694033573220892;0;0;0;0;0
0.53462844905614337;-0.0092387953251128665;0;0;0;0;0
0.54490976538414615;-0.0088192126434835511;0;0;0;0;0
0.55519108171214893;-0.0083146961230254508;0;0;0;0;0
0.5654723980401517;-0.0077301045336273687;0;0;0;0;0
0.57575371436815437;-0.0070710678118654771;0;0;0;0;0
0.58603503069615714;-0.0063439328416364594;0;0;0;0;0
0.59631634702415992;-0.0055557023301960216;0;0;0;0;0
0.6065976633521627;-0.0047139673682599715;0;0;0;0;0
0.61687897968016547;-0.0038268343236508959;0;0;0;0;0
0.62716029600816825;-0.0029028467725446161;0;0;0;0;0
0.63744161233617092;-0.0019509032201612873;0;0;0;0;0
0.64772292866417369;-0.00098017140329560498;0;0;0;0;0
0.65800424499217647;-2.4492935982947064e-18;0;0;0;0;0
0.66828556132017924;0.0009801714032956091;0;0;0;0;0
0.67856687764818202;0.0019509032201612826;0;0;0;0;0
0.68884819397618469;0.00290284677254462;0;0;0;0;0
0.69912951030418746;0.0038268343236508911;0;0;0;0;0
0.70941082663219024;0.0047139673682599758;0;0;0;0;0
0.71969214296019302;0.0055557023301960251;0;0;0;0;0
0.72997345928819579;0.0063439328416364559;0;0;0;0;0
0.74025477561619857;0.0070710678118654788;0;0;0;0;0
0.75053609194420123;0.007730104533627366;0;0;0;0;0
0.76081740827220401;0.0083146961230254526;0;0;0;0;0
0.77109872460020679;0.0088192126434835493;0;0;0;0;0
0.78138004092820956;0.0092387953251128682;0;0;0;0;0
0.79166135725621234;0.0095694033573220892;0;0;0;0;0
0.80194267358421512;0.0098078528040323049;0;0;0;0;0
0.81222398991221778;0.0099518472667219689;0;0;0;0;0
0.82250530624022056;0.01;0;0;0;0;0
0.83278662256822333;0.0099518472667219689;0;0;0;0;0
0.84306793889622611;0.0098078528040323031;0;0;0;0;0
0.85334925522422889;0.0095694033573220875;0;0;0;0;0
0.86363057155223166;0.0092387953251128682;0;0;0;0;0
0.87391188788023433;0.0088192126434835511;0;0;0;0;0
0.8841932042082371;0.008314696123025456;0;0;0;0;0
0.89447452053623988;0.0077301045336273756;0;0;0;0;0
0.90475583686424266;0.007071067811865471;0;0;0;0;0
0.91503715319224543;0.0063439328416364541;0;0;0;0;0
0.92531846952024821;0.0055557023301960233;0;0;0;0;0
0.93559978584825088;0.0047139673682599801;0;0;0;0;0
0.94588110217625365;0.003826834323650905;0;0;0;0;0
0.95616241850425643;0.0029028467725446178;0;0;0;0;0
0.9664437348322592;0.0019509032201612798;0;0;0;0;0
0.97672505116026198;0.00098017140329560628;0;0;0;0;0
0.98700636748826476;3.6739403974420592e-18;0;0;0;0;0
0.99728768381626742;-0.00098017140329559891;0;0;0;0;0
1.0075690001442703;-0.0019509032201612899;0;0;0;0;0
1.017850316472273;-0.0029028467725446278;0;0;0;0;0
1.0281316328002756;-0.003826834323650882;0;0;0;0;0
1.0384129491282785;-0.0047139673682599741;0;0;0;0;0
1.0486942654562812;-0.0055557023301960173;0;0;0;0;0
1.0589755817842841;-0.006343932841636462;0;0;0;0;0
1.0692568981122867;-0.0070710678118654788;0;0;0;0;0
1.0795382144402894;-0.0077301045336273591;0;0;0;0;0
1.0898195307682923;-0.0083146961230254508;0;0;0;0;0
1.100100847096295;-0.0088192126434835493;0;0;0;0;0
1.1103821634242979;-0.0092387953251128717;0;0;0;0;0
1.1206634797523005;-0.0095694033573220857;0;0;0;0;0
1.1309447960803034;-0.0098078528040323049;0;0;0;0;0
1.1412261124083061;-0.0099518472667219689;0;0;0;0;0
1.1515074287363087;-0.01;0;0;0;0;0
1.1617887450643116;-0.0099518472667219689;0;0;0;0;0
1.1720700613923143;-0.0098078528040323066;0;0;0;0;0
1.1823513777203172;-0.0095694033573220875;0;0;0;0;0
1.1926326940483198;-0.0092387953251128682;0;0;0;0;0
1.2029140103763225;-0.0088192126434835511;0;0;0;0;0
1.2131953267043254;-0.0083146961230254456;0;0;0;0;0
1.2234766430323281;-0.0077301045336273756;0;0;0;0;0
1.2337579593603309;-0.0070710678118654727;0;0;0;0;0
1.2440392756883336;-0.0063439328416364541;0;0;0;0;0
1.2543205920163365;-0.0055557023301960095;0;0;0;0;0
1.2646019083443392;-0.0047139673682599819;0;0;0;0;0
1.2748832246723418;-0.0038268343236509063;0;0;0;0;0
1.2851645410003447;-0.0029028467725446187;0;0;0;0;0
1.2954458573283474;-0.0019509032201612808;0;0;0;0;0
1.3057271736563503;-0.0009801714032955898;0;0;0;0;0
1.3160084899843529;-4.8985871965894128e-18;0;0;0;0;0
1.3262898063123556;0.00098017140329559782;0;0;0;0;0
1.3365711226403585;0.0019509032201612886;0;0;0;0;0
1.3468524389683612;0.0029028467725446261;0;0;0;0;0
1.357133755296364;0.0038268343236508972;0;0;0;0;0
1.3674150716243667;0.0047139673682599732;0;0;0;0;0
1.3776963879523694;0.0055557023301960164;0;0;0;0;0
1.3879777042803723;0.0063439328416364602;0;0;0;0;0
1.3982590206083749;0.0070710678118654658;0;0;0;0;0
1.4085403369363778;0.0077301045336273704;0;0;0;0;0
1.4188216532643805;0.0083146961230254508;0;0;0;0;0
1.4291029695923834;0.0088192126434835563;0;0;0;0;0
1.439384285920386;0.0092387953251128717;0;0;0;0;0
1.4496656022483887;0.0095694033573220857;0;0;0;0;0
1.4599469185763916;0.0098078528040323049;0;0;0;0;0
1.4702282349043942;0.0099518472667219689;0;0;0;0;0
1.4805095512323971;0.01;0;0;0;0;0
1.4907908675603998;0.0099518472667219689;0;0;0;0;0
1.5010721838884025;0.0098078528040323066;0;0;0;0;0
1.5113535002164054;0.0095694033573220892;0;0;0;0;0
1.521634816544408;0.0092387953251128682;0;0;0;0;0
1.5319161328724109;0.0088192126434835441;0;0;0;0;0
1.5421974492004136;0.0083146961230254578;0;0;0;0;0
1.5524787655284165;0.007730104533627366;0;0;0;0;0
1.5627600818564191;0.0070710678118654736;0;0;0;0;0
1.5730413981844218;0.006343932841636455;0;0;0;0;0
1.5833227145124247;0.0055557023301960251;0;0;0;0;0
1.5936040308404273;0.0047139673682599827;0;0;0;0;0
1.6038853471684302;0.0038268343236508911;0;0;0;0;0
1.6141666634964329;0.00290284677254462;0;0;0;0;0
1.6244479798244356;0.0019509032201612995;0;0;0;0;0
1.6347292961524384;0.00098017140329560888;0;0;0;0;0
1.6450106124804411;6.1232339957367663e-18;0;0;0;0;0
1.655291928808444;-0.0009801714032956143;0;0;0;0;0
1.6655732451364467;-0.0019509032201612876;0;0;0;0;0
1.6758545614644493;-0.0029028467725446083;0;0;0;0;0
1.6861358777924522;-0.0038268343236509124;0;0;0;0;0
1.6964171941204549;-0.0047139673682599567;0;0;0;0;0
1.7066985104484578;-0.0055557023301960294;0;0;0;0;0
1.7169798267764604;-0.0063439328416364594;0;0;0;0;0
1.7272611431044633;-0.0070710678118654771;0;0;0;0;0
1.737542459432466;-0.0077301045336273687;0;0;0;0;0
1.7478237757604687;-0.0083146961230254508;0;0;0;0;0
1.7581050920884715;-0.0088192126434835476;0;0;0;0;0
1.7683864084164742;-0.009238795325112863;0;0;0;0;0
1.7786677247444771;-0.0095694033573220944;0;0;0;0;0
1.7889490410724798;-0.0098078528040323014;0;0;0;0;0
1.7992303574004824;-0.0099518472667219672;0;0;0;0;0
1.8095116737284853;-0.01;0;0;0;0;0
1.819792990056488;-0.0099518472667219689;0;0;0;0;0
1.8300743063844909;-0.0098078528040323031;0;0;0;0;0
1.8403556227124935;-0.0095694033573220892;0;0;0;0;0
1.8506369390404964;-0.0092387953251128682;0;0;0;0;0
1.8609182553684991;-0.0088192126434835528;0;0;0;0;0
1.8711995716965018;-0.0083146961230254578;0;0;0;0;0
1.8814808880245046;-0.0077301045336273782;0;0;0;0;0
1.8917622043525073;-0.0070710678118654866;0;0;0;0;0
1.9020435206805102;-0.0063439328416364429;0;0;0;0;0
1.9123248370085129;-0.0055557023301960121;0;0;0;0;0
1.9226061533365155;-0.0047139673682599992;0;0;0;0;0
1.9328874696645184;-0.0038268343236508924;0;0;0;0;0
1.9431687859925211;-0.0029028467725446213;0;0;0;0;0
1.953450102320524;-0.0019509032201612834;0;0;0;0;0
1.9637314186485266;-0.00098017140329560997;0;0;0;0;0
1.9740127349765295;-7.3478807948841184e-18;0;0;0;0;0
1.9842940513045322;0.00098017140329559544;0;0;0;0;0
1.9945753676325348;0.0019509032201612689;0;0;0;0;0
2.0048566839605377;0.0029028467725446413;0;0;0;0;0
2.0151380002885406;0.0038268343236509111;0;0;0;0;0
2.0254193166165431;0.0047139673682599558;0;0;0;0;0
2.035700632944546;0.0055557023301960285;0;0;0;0;0
2.0459819492725488;0.0063439328416364585;0;0;0;0;0
2.0562632656005513;0.0070710678118654511;0;0;0;0;0
2.0665445819285542;0.0077301045336273678;0;0;0;0;0
2.0768258982565571;0.0083146961230254491;0;0;0;0;0
2.0871072145845599;0.0088192126434835632;0;0;0;0;0
2.0973885309125624;0.009238795325112863;0;0;0;0;0
2.1076698472405653;0.009569403357322084;0;0;0;0;0
2.1179511635685682;0.0098078528040323083;0;0;0;0;0
2.1282324798965706;0.0099518472667219672;0;0;0;0;0
2.1385137962245735;0.01;0;0;0;0;0
2.1487951125525764;0.0099518472667219689;0;0;0;0;0
2.1590764288805788;0.0098078528040323118;0;0;0;0;0
2.1693577452085817;0.0095694033573220892;0;0;0;0;0
2.1796390615365846;0.0092387953251128682;0;0;0;0;0
2.1899203778645875;0.0088192126434835372;0;0;0;0;0
2.2002016941925899;0.0083146961230254578;0;0;0;0;0
2.2104830105205928;0.0077301045336273791;0;0;0;0;0
2.2207643268485957;0.0070710678118654623;0;0;0;0;0
2.2310456431765981;0.0063439328416364706;0;0;0;0;0
2.241326959504601;0.0055557023301960416;0;0;0;0;0
2.2516082758326039;0.0047139673682599697;0;0;0;0;0
2.2618895921606068;0.0038268343236508933;0;0;0;0;0
2.2721709084886093;0.0029028467725446222;0;0;0;0;0
2.2824522248166121;0.0019509032201612845;0;0;0;0;0
2.292733541144615;0.0009801714032955757;0;0;0;0;0
2.3030148574726175;8.572527594031472e-18;0;0;0;0;0
2.3132961738006204;-0.00098017140329559414;0;0;0;0;0
2.3235774901286232;-0.0019509032201613025;0;0;0;0;0
2.3338588064566257;-0.0029028467725446057;0;0;0;0;0
2.3441401227846286;-0.0038268343236508772;0;0;0;0;0
2.3544214391126315;-0.0047139673682599853;0;0;0;0;0
2.3647027554406344;-0.0055557023301960277;0;0;0;0;0
2.3749840717686368;-0.0063439328416364576;0;0;0;0;0
2.3852653880966397;-0.0070710678118654762;0;0;0;0;0
2.3955467044246426;-0.0077301045336273678;0;0;0;0;0
2.405828020752645;-0.0083146961230254491;0;0;0;0;0
2.4161093370806479;-0.0088192126434835458;0;0;0;0;0
2.4263906534086508;-0.0092387953251128769;0;0;0;0;0
2.4366719697366537;-0.0095694033573220944;0;0;0;0;0
2.4469532860646561;-0.0098078528040323014;0;0;0;0;0
2.457234602392659;-0.0099518472667219707;0;0;0;0;0
2.4675159187206619;-0.01;0;0;0;0;0
2.4777972350486643;-0.0099518472667219724;0;0;0;0;0
2.4880785513766672;-0.0098078528040323049;0;0;0;0;0
2.4983598677046701;-0.0095694033573220892;0;0;0;0;0
2.508641184032673;-0.0092387953251128561;0;0;0;0;0
2.5189225003606754;-0.0088192126434835545;0;0;0;0;0
2.5292038166886783;-0.0083146961230254595;0;0;0;0;0
2.5394851330166812;-0.0077301045336273565;0;0;0;0;0
2.5497664493446837;-0.0070710678118654884;0;0;0;0;0
2.5600477656726865;-0.0063439328416364437;0;0;0;0;0
2.5703290820006894;-0.0055557023301960138;0;0;0;0;0
2.5806103983286919;-0.0047139673682600018;0;0;0;0;0
2.5908917146566948;-0.0038268343236508946;0;0;0;0;0
2.6011730309846977;-0.0029028467725446235;0;0;0;0;0
2.6114543473127005;-0.0019509032201612509;0;0;0;0;0
2.621735663640703;-0.00098017140329561235;0;0;0;0;0
2.6320169799687059;-9.7971743931788255e-18;0;0;0;0;0
2.6422982962967088;0.00098017140329562818;0;0;0;0;0
2.6525796126247112;0.0019509032201612665;0;0;0;0;0
2.6628609289527141;0.0029028467725446044;0;0;0;0;0
2.673142245280717;0.0038268343236509089;0;0;0;0;0
2.6834235616087199;0.0047139673682599845;0;0;0;0;0
2.6937048779367223;0.0055557023301960277;0;0;0;0;0
2.7039861942647252;0.0063439328416364576;0;0;0;0;0
2.7142675105927281;0.0070710678118654745;0;0;0;0;0
2.7245488269207305;0.0077301045336273669;0;0;0;0;0
2.7348301432487334;0.0083146961230254474;0;0;0;0;0
2.7451114595767363;0.0088192126434835615;0;0;0;0;0
2.7553927759047387;0.0092387953251128613;0;0;0;0;0
2.7656740922327416;0.009569403357322084;0;0;0;0;0
2.7759554085607445;0.0098078528040323083;0;0;0;0;0
2.7862367248887474;0.0099518472667219707;0;0;0;0;0
2.7965180412167499;0.01;0;0;0;0;0
2.8067993575447527;0.0099518472667219689;0;0;0;0;0
2.8170806738727556;0.0098078528040323049;0;0;0;0;0
2.8273619902007581;0.0095694033573220892;0;0;0;0;0
2.837643306528761;0.00923879532511287;0;0;0;0;0
2.8479246228567638;0.0088192126434835545;0;0;0;0;0
2.8582059391847667;0.0083146961230254404;0;0;0;0;0
2.8684872555127692;0.0077301045336273799;0;0;0;0;0
2.8787685718407721;0.0070710678118654641;0;0;0;0;0
2.8890498881687749;0.0063439328416364446;0;0;0;0;0
2.8993312044967774;0.0055557023301960442;0;0;0;0;0
2.9096125208247803;0.0047139673682599715;0;0;0;0;0
2.9198938371527832;0.0038268343236508959;0;0;0;0;0
2.9301751534807861;0.0029028467725445905;0;0;0;0;0
2.9404564698087885;0.0019509032201612869;0;0;0;0;0
2.9507377861367914;0.00098017140329561365;0;0;0;0;0
2.9610191024647943;-2.4505315595678831e-17;0;0;0;0;0
2.9713004187927967;-0.00098017140329559175;0;0;0;0;0
2.9815817351207996;-0.0019509032201612652;0;0;0;0;0
2.9918630514488025;-0.0029028467725446374;0;0;0;0;0
3.0021443677768049;-0.0038268343236508751;0;0;0;0;0
3.0124256841048078;-0.0047139673682599836;0;0;0;0;0
3.0227070004328107;-0.0055557023301960259;0;0;0;0;0
3.0329883167608136;-0.0063439328416364559;0;0;0;0;0
3.043269633088816;-0.0070710678118654736;0;0;0;0;0
3.0535509494168189;-0.007730104533627366;0;0;0;0;0
3.0638322657448218;-0.0083146961230254664;0;0;0;0;0
3.0741135820728243;-0.0088192126434835441;0;0;0;0;0
3.0843948984008271;-0.0092387953251128613;0;0;0;0;0
3.09467621472883;-0.0095694033573220944;0;0;0;0;0
3.1049575310568329;-0.0098078528040323066;0;0;0;0;0
3.1152388473848354;-0.0099518472667219655;0;0;0;0;0
3.1255201637128383;-0.01;0;0;0;0;0
3.1358014800408411;-0.0099518472667219689;0;0;0;0;0
3.1460827963688436;-0.0098078528040323049;0;0;0;0;0
3.1563641126968465;-0.0095694033573220892;0;0;0;0;0
3.1666454290248494;-0.0092387953251128717;0;0;0;0;0
3.1769267453528518;-0.0088192126434835545;0;0;0;0;0
3.1872080616808547;-0.0083146961230254595;0;0;0;0;0
3.1974893780088576;-0.0077301045336273582;0;0;0;0;0
3.2077706943368605;-0.0070710678118654649;0;0;0;0;0
3.2180520106648629;-0.0063439328416364741;0;0;0;0;0
3.2283333269928658;-0.0055557023301960155;0;0;0;0;0
3.2386146433208687;-0.0047139673682599723;0;0;0;0;0
3.2488959596488711;-0.0038268343236509297;0;0;0;0;0
3.259177275976874;-0.0029028467725446257;0;0;0;0;0
3.2694585923048769;-0.001950903220161288;0;0;0;0;0
3.2797399086328798;-0.00098017140329557961;0;0;0;0;0
3.2900212249608822;-1.2246467991473533e-17;0;0;0;0;0
3.3003025412888851;0.00098017140329559045;0;0;0;0;0
3.310583857616888;0.0019509032201612988;0;0;0;0;0
3.3208651739448904;0.0029028467725446022;0;0;0;0;0
3.3311464902728933;0.0038268343236509067;0;0;0;0;0
3.3414278066008962;0.0047139673682599819;0;0;0;0;0
3.3517091229288987;0.0055557023301959956;0;0;0;0;0
3.3619904392569016;0.006343932841636455;0;0;0;0;0
3.3722717555849044;0.0070710678118654979;0;0;0;0;0
3.3825530719129073;0.007730104533627366;0;0;0;0;0
3.3928343882409098;0.0083146961230254265;0;0;0;0;0
3.4031157045689127;0.0088192126434835441;0;0;0;0;0
3.4133970208969155;0.0092387953251128734;0;0;0;0;0
3.423678337224918;0.0095694033573220823;0;0;0;0;0
3.4339596535529209;0.0098078528040323066;0;0;0;0;0
3.4442409698809238;0.0099518472667219655;0;0;0;0;0
3.4545222862089267;0.01;0;0;0;0;0
3.4648036025369291;0.0099518472667219724;0;0;0;0;0
3.475084918864932;0.0098078528040323049;0;0;0;0;0
3.4853662351929349;0.0095694033573220788;0;0;0;0;0
3.4956475515209373;0.0092387953251128717;0;0;0;0;0
3.5059288678489402;0.0088192126434835389;0;0;0;0;0
3.5162101841769431;0.0083146961230254612;0;0;0;0;0
3.526491500504946;0.0077301045336273591;0;0;0;0;0
3.5367728168329484;0.0070710678118654918;0;0;0;0;0
3.5470541331609513;0.0063439328416364472;0;0;0;0;0
3.5573354494889542;0.0055557023301959878;0;0;0;0;0
3.5676167658169566;0.0047139673682599741;0;0;0;0;0
3.5778980821449595;0.0038268343236509306;0;0;0;0;0
3.5881793984729624;0.0029028467725446265;0;0;0;0;0
3.5984607148009649;0.0019509032201613242;0;0;0;0;0
3.6087420311289677;0.00098017140329561604;0;0;0;0;0
3.6190233474569706;-2.2056021997384124e-17;0;0;0;0;0
3.6293046637849735;-0.00098017140329558937;0;0;0;0;0
3.639585980112976;-0.0019509032201612978;0;0;0;0;0
3.6498672964409788;-0.0029028467725446014;0;0;0;0;0
3.6601486127689817;-0.0038268343236509059;0;0;0;0;0
3.6704299290969842;-0.0047139673682599498;0;0;0;0;0
3.6807112454249871;-0.0055557023301960242;0;0;0;0;0
3.69099256175299;-0.0063439328416364819;0;0;0;0;0
3.7012738780809928;-0.007071067811865471;0;0;0;0;0
3.7115551944089953;-0.0077301045336273426;0;0;0;0;0
3.7218365107369982;-0.0083146961230254456;0;0;0;0;0
3.7321178270650011;-0.0088192126434835615;0;0;0;0;0
3.7423991433930035;-0.0092387953251128613;0;0;0;0;0
3.7526804597210064;-0.0095694033573220927;0;0;0;0;0
3.7629617760490093;-0.0098078528040322997;0;0;0;0;0
3.7732430923770117;-0.0099518472667219689;0;0;0;0;0
3.7835244087050146;-0.01;0;0;0;0;0
3.7938057250330175;-0.0099518472667219689;0;0;0;0;0
3.8040870413610204;-0.0098078528040322979;0;0;0;0;0
3.8143683576890228;-0.0095694033573220909;0;0;0;0;0
3.8246496740170257;-0.0092387953251128578;0;0;0;0;0
3.8349309903450286;-0.0088192126434835563;0;0;0;0;0
3.845212306673031;-0.0083146961230254821;0;0;0;0;0
3.8554936230010339;-0.0077301045336273825;0;0;0;0;0
3.8657749393290368;-0.0070710678118654667;0;0;0;0;0
3.8760562556570397;-0.0063439328416364203;0;0;0;0;0
3.8863375719850421;-0.0055557023301960173;0;0;0;0;0
3.896618888313045;-0.0047139673682600062;0;0;0;0;0
3.9069002046410479;-0.0038268343236508989;0;0;0;0;0
3.9171815209690504;-0.0029028467725446621;0;0;0;0;0
3.9274628372970533;-0.0019509032201612906;0;0;0;0;0
3.9377441536250561;-0.00098017140329558199;0;0;0;0;0
3.948025469953059;-1.4695761589768237e-17;0;0;0;0;0
3.9583067862810615;0.00098017140329562341;0;0;0;0;0
3.9685881026090644;0.0019509032201612618;0;0;0;0;0
3.9788694189370672;0.0029028467725446339;0;0;0;0;0
3.9891507352650697;0.0038268343236508716;0;0;0;0;0
3.9994320515930726;0.0047139673682599801;0;0;0;0;0
4.0097133679210755;0.005555702330196052;0;0;0;0;0
4.0199946842490784;0.0063439328416364524;0;0;0;0;0
4.0302760005770812;0.0070710678118654962;0;0;0;0;0
4.0405573169050832;0.0077301045336273634;0;0;0;0;0
4.0508386332330861;0.0083146961230254265;0;0;0;0;0
4.061119949561089;0.0088192126434835424;0;0;0;0;0
4.0714012658890919;0.0092387953251128734;0;0;0;0;0
4.0816825822170948;0.0095694033573220823;0;0;0;0;0
4.0919638985450977;0.0098078528040323066;0;0;0;0;0
4.1022452148731006;0.0099518472667219724;0;0;0;0;0
4.1125265312011026;0.01;0;0;0;0;0
4.1228078475291055;0.0099518472667219724;0;0;0;0;0
4.1330891638571083;0.0098078528040323049;0;0;0;0;0
4.1433704801851112;0.0095694033573220805;0;0;0;0;0
4.1536517965131141;0.0092387953251128717;0;0;0;0;0
4.163933112841117;0.0088192126434835406;0;0;0;0;0
4.1742144291691199;0.0083146961230254231;0;0;0;0;0
4.1844957454971219;0.0077301045336274059;0;0;0;0;0
4.1947770618251248;0.0070710678118654927;0;0;0;0;0
4.2050583781531277;0.0063439328416364498;0;0;0;0;0
4.2153396944811306;0.0055557023301960485;0;0;0;0;0
4.2256210108091334;0.0047139673682599758;0;0;0;0;0
4.2359023271371363;0.0038268343236508673;0;0;0;0;0
4.2461836434651392;0.002902846772544561;0;0;0;0;0
4.2564649597931412;0.0019509032201613266;0;0;0;0;0
4.2667462761211441;0.00098017140329561864;0;0;0;0;0
4.277027592449147;-1.9606728399089417e-17;0;0;0;0;0
4.2873089087771499;-0.00098017140329558698;0;0;0;0;0
4.2975902251051528;-0.0019509032201612954;0;0;0;0;0
4.3078715414331556;-0.0029028467725446669;0;0;0;0;0
4.3181528577611576;-0.0038268343236508378;0;0;0;0;0
4.3284341740891605;-0.004713967368259948;0;0;0;0;0
4.3387154904171634;-0.0055557023301960216;0;0;0;0;0
4.3489968067451663;-0.0063439328416364247;0;0;0;0;0
4.3592781230731692;-0.0070710678118654701;0;0;0;0;0
4.3695594394011721;-0.007730104533627386;0;0;0;0;0
4.379840755729175;-0.0083146961230254855;0;0;0;0;0
4.390122072057177;-0.008819212643483525;0;0;0;0;0
4.4004033883851799;-0.0092387953251128595;0;0;0;0;0
4.4106847047131827;-0.0095694033573220909;0;0;0;0;0
4.4209660210411856;-0.0098078528040322997;0;0;0;0;0
4.4312473373691885;-0.0099518472667219689;0;0;0;0;0
4.4415286536971914;-0.01;0;0;0;0;0
4.4518099700251943;-0.009951847266721962;0;0;0;0;0
4.4620912863531963;-0.0098078528040323118;0;0;0;0;0
4.4723726026811992;-0.0095694033573220909;0;0;0;0;0
4.4826539190092021;-0.0092387953251128873;0;0;0;0;0
4.492935235337205;-0.008819212643483558;0;0;0;0;0
4.5032165516652078;-0.0083146961230254439;0;0;0;0;0
4.5134978679932107;-0.0077301045336273392;0;0;0;0;0
4.5237791843212136;-0.0070710678118654684;0;0;0;0;0
4.5340605006492156;-0.0063439328416364776;0;0;0;0;0
4.5443418169772185;-0.0055557023301960199;0;0;0;0;0
4.5546231333052214;-0.0047139673682600079;0;0;0;0;0
4.5649044496332243;-0.0038268343236509011;0;0;0;0;0
4.5751857659612272;-0.0029028467725445966;0;0;0;0;0
4.5854670822892301;-0.0019509032201612232;0;0;0;0;0
4.5957483986172329;-0.00098017140329558438;0;0;0;0;0
4.6060297149452349;-1.7145055188062944e-17;0;0;0;0;0
4.6163110312732378;0.00098017140329555033;0;0;0;0;0
4.6265923476012407;0.0019509032201612592;0;0;0;0;0
4.6368736639292436;0.0029028467725446317;0;0;0;0;0
4.6471549802572465;0.0038268343236509349;0;0;0;0;0
4.6574362965852494;0.0047139673682599784;0;0;0;0;0
4.6677176129132514;0.0055557023301959904;0;0;0;0;0
4.6779989292412543;0.0063439328416364507;0;0;0;0;0
4.6882802455692572;0.0070710678118654433;0;0;0;0;0
4.69856156189726;0.0077301045336273626;0;0;0;0;0
4.7088428782252629;0.008314696123025463;0;0;0;0;0
4.7191241945532658;0.0088192126434835753;0;0;0;0;0
4.7294055108812687;0.0092387953251128734;0;0;0;0;0
4.7396868272092707;0.0095694033573220823;0;0;0;0;0
4.7499681435372736;0.0098078528040323049;0;0;0;0;0
4.7602494598652765;0.0099518472667219655;0;0;0;0;0
4.7705307761932794;0.01;0;0;0;0;0
4.7808120925212823;0.0099518472667219655;0;0;0;0;0
4.7910934088492851;0.0098078528040323049;0;0;0;0;0
4.801374725177288;0.0095694033573220823;0;0;0;0;0
4.81165604150529;0.0092387953251128734;0;0;0;0;0
4.8219373578332929;0.0088192126434835753;0;0;0;0;0
4.8322186741612958;0.008314696123025463;0;0;0;0;0
4.8424999904892987;0.0077301045336273626;0;0;0;0;0
4.8527813068173016;0.0070710678118654433;0;0;0;0;0
4.8630626231453045;0.0063439328416364507;0;0;0;0;0
4.8733439394733074;0.0055557023301959904;0;0;0;0;0
4.8836252558013094;0.0047139673682599784;0;0;0;0;0
4.8939065721293122;0.0038268343236509349;0;0;0;0;0
4.9041878884573151;0.0029028467725446317;0;0;0;0;0
4.914469204785318;0.0019509032201612592;0;0;0;0;0
4.9247505211133209;0.00098017140329562081;0;0;0;0;0
4.9350318374413238;-1.7157434800794713e-17;0;0;0;0;0
4.9453131537693267;-0.00098017140329565529;0;0;0;0;0
4.9555944700973287;-0.0019509032201612232;0;0;0;0;0
4.9658757864253316;-0.0029028467725445966;0;0;0;0;0
4.9761571027533344;-0.0038268343236509011;0;0;0;0;0
4.9864384190813373;-0.0047139673682600079;0;0;0;0;0
4.9967197354093402;-0.0055557023301960199;0;0;0;0;0
5.0070010517373431;-0.0063439328416364776;0;0;0;0;0
5.017282368065346;-0.0070710678118655196;0;0;0;0;0
5.027563684393348;-0.0077301045336273392;0;0;0;0;0
5.0378450007213509;-0.0083146961230254439;0;0;0;0;0
5.0481263170493538;-0.008819212643483558;0;0;0;0;0
5.0584076333773567;-0.0092387953251128595;0;0;0;0;0
5.0686889497053595;-0.0095694033573220909;0;0;0;0;0
5.0789702660333624;-0.0098078528040323118;0;0;0;0;0
5.0892515823613644;-0.009951847266721962;0;0;0;0;0
5.0995328986893673;-0.01;0;0;0;0;0
5.1098142150173702;-0.0099518472667219689;0;0;0;0;0
5.1200955313453731;-0.0098078528040322997;0;0;0;0;0
5.130376847673376;-0.0095694033573220909;0;0;0;0;0
5.1406581640013789;-0.0092387953251128595;0;0;0;0;0
5.1509394803293818;-0.008819212643483525;0;0;0;0;0
5.1612207966573838;-0.0083146961230254855;0;0;0;0;0
5.1715021129853866;-0.007730104533627386;0;0;0;0;0
5.1817834293133895;-0.0070710678118654701;0;0;0;0;0
5.1920647456413924;-0.0063439328416364793;0;0;0;0;0
5.2023460619693953;-0.0055557023301960216;0;0;0;0;0
5.2126273782973982;-0.004713967368259948;0;0;0;0;0
5.2229086946254011;-0.0038268343236508378;0;0;0;0;0
5.2331900109534031;-0.0029028467725446669;0;0;0;0;0
5.243471327281406;-0.0019509032201612954;0;0;0;0;0
5.2537526436094089;-0.00098017140329558676;0;0;0;0;0
5.2640339599374117;-1.9594348786357651e-17;0;0;0;0;0
5.2743152762654146;0.00098017140329561864;0;0;0;0;0
5.2845965925934175;0.0019509032201613266;0;0;0;0;0
5.2948779089214204;0.0029028467725446296;0;0;0;0;0
5.3051592252494224;0.0038268343236508673;0;0;0;0;0
5.3154405415774253;0.0047139673682599758;0;0;0;0;0
5.3257218579054282;0.0055557023301959895;0;0;0;0;0
5.3360031742334311;0.0063439328416364498;0;0;0;0;0
5.346284490561434;0.0070710678118654927;0;0;0;0;0
5.3565658068894368;0.0077301045336274059;0;0;0;0;0
5.3668471232174397;0.008314696123025463;0;0;0;0;0
5.3771284395454417;0.0088192126434835406;0;0;0;0;0
5.3874097558734446;0.0092387953251128717;0;0;0;0;0
5.3976910722014475;0.0095694033573220805;0;0;0;0;0
5.4079723885294504;0.0098078528040323049;0;0;0;0;0
5.4182537048574533;0.0099518472667219724;0;0;0;0;0
5.4285350211854562;0.01;0;0;0;0;0
5.4388163375134591;0.0099518472667219655;0;0;0;0;0
5.4490976538414611;0.0098078528040323066;0;0;0;0;0
5.4593789701694639;0.0095694033573221031;0;0;0;0;0
5.4696602864974668;0.0092387953251128734;0;0;0;0;0
5.4799416028254697;0.0088192126434835424;0;0;0;0;0
5.4902229191534726;0.0083146961230254265;0;0;0;0;0
5.5005042354814755;0.0077301045336273634;0;0;0;0;0
5.5107855518094775;0.0070710678118654962;0;0;0;0;0
5.5210668681374804;0.0063439328416364524;0;0;0;0;0
5.5313481844654833;0.005555702330196052;0;0;0;0;0
5.5416295007934862;0.0047139673682599801;0;0;0;0;0
5.551910817121489;0.0038268343236508716;0;0;0;0;0
5.5621921334494919;0.0029028467725446339;0;0;0;0;0
5.5724734497774948;0.0019509032201612618;0;0;0;0;0
5.5827547661054968;0.00098017140329562341;0;0;0;0;0
5.5930360824334997;5.6346132373510012e-17;0;0;0;0;0
5.6033173987615026;-0.00098017140329558199;0;0;0;0;0
5.6135987150895055;-0.0019509032201612906;0;0;0;0;0
5.6238800314175084;-0.0029028467725446621;0;0;0;0;0
5.6341613477455113;-0.0038268343236508989;0;0;0;0;0
5.6444426640735141;-0.0047139673682600062;0;0;0;0;0
5.6547239804015161;-0.0055557023301960173;0;0;0;0;0
5.665005296729519;-0.0063439328416364203;0;0;0;0;0
5.6752866130575219;-0.0070710678118654667;0;0;0;0;0
5.6855679293855248;-0.0077301045336273825;0;0;0;0;0
5.6958492457135277;-0.0083146961230254422;0;0;0;0;0
5.7061305620415306;-0.0088192126434835563;0;0;0;0;0
5.7164118783695335;-0.0092387953251128856;0;0;0;0;0
5.7266931946975355;-0.0095694033573220701;0;0;0;0;0
5.7369745110255383;-0.0098078528040322979;0;0;0;0;0
5.7472558273535412;-0.0099518472667219689;0;0;0;0;0
5.7575371436815441;-0.01;0;0;0;0;0
5.767818460009547;-0.0099518472667219689;0;0;0;0;0
5.7780997763375499;-0.0098078528040322997;0;0;0;0;0
5.7883810926655528;-0.0095694033573220719;0;0;0;0;0
5.7986624089935548;-0.0092387953251128873;0;0;0;0;0
5.8089437253215577;-0.0088192126434835615;0;0;0;0;0
5.8192250416495606;-0.0083146961230254456;0;0;0;0;0
5.8295063579775634;-0.0077301045336273869;0;0;0;0;0
5.8397876743055663;-0.007071067811865471;0;0;0;0;0
5.8500689906335692;-0.0063439328416364264;0;0;0;0;0
5.8603503069615721;-0.0055557023301959652;0;0;0;0;0
5.8706316232895741;-0.0047139673682600122;0;0;0;0;0
5.880912939617577;-0.0038268343236509059;0;0;0;0;0
5.8911942559455799;-0.0029028467725446014;0;0;0;0;0
5.9014755722735828;-0.0019509032201612978;0;0;0;0;0
5.9117568886015857;-0.00098017140329558937;0;0;0;0;0
5.9220382049295885;4.9010631191357662e-17;0;0;0;0;0
5.9323195212575905;0.00098017140329554535;0;0;0;0;0
5.9426008375855934;0.0019509032201612544;0;0;0;0;0
5.9528821539135963;0.0029028467725446265;0;0;0;0;0
5.9631634702415992;0.0038268343236508651;0;0;0;0;0
5.9734447865696021;0.0047139673682599741;0;0;0;0;0
5.983726102897605;0.0055557023301960459;0;0;0;0;0
5.9940074192256079;0.0063439328416365027;0;0;0;0;0
6.0042887355536099;0.0070710678118654407;0;0;0;0;0
6.0145700518816128;0.0077301045336273591;0;0;0;0;0
6.0248513682096156;0.0083146961230254612;0;0;0;0;0
6.0351326845376185;0.0088192126434835389;0;0;0;0;0
6.0454140008656214;0.0092387953251128717;0;0;0;0;0
6.0556953171936243;0.0095694033573221014;0;0;0;0;0
6.0659766335216272;0.0098078528040323049;0;0;0;0;0
6.0762579498496292;0.0099518472667219655;0;0;0;0;0
6.0865392661776321;0.01;0;0;0;0;0
6.096820582505635;0.0099518472667219724;0;0;0;0;0
6.1071018988336379;0.0098078528040323066;0;0;0;0;0
6.1173832151616407;0.0095694033573220823;0;0;0;0;0
6.1276645314896436;0.0092387953251128474;0;0;0;0;0
6.1379458478176465;0.0088192126434835441;0;0;0;0;0
6.1482271641456485;0.0083146961230254664;0;0;0;0;0
6.1585084804736514;0.007730104533627366;0;0;0;0;0
6.1687897968016543;0.0070710678118654979;0;0;0;0;0
6.1790711131296572;0.006343932841636455;0;0;0;0;0
6.1893524294576601;0.0055557023301959956;0;0;0;0;0
6.199633745785663;0.0047139673682599819;0;0;0;0;0
6.2099150621136658;0.0038268343236508742;0;0;0;0;0
6.2201963784416678;0.0029028467725446361;0;0;0;0;0
6.2304776947696707;0.001950903220161334;0;0;0;0;0
6.2407590110976736;0.00098017140329562579;0;0;0;0;0
6.2510403274256765;-1.22588476042053e-17;0;0;0;0;0
6.2613216437536794;-0.00098017140329565008;0;0;0;0;0
6.2716029600816823;-0.001950903220161288;0;0;0;0;0
6.2818842764096843;-0.0029028467725445918;0;0;0;0;0
6.2921655927376872;-0.0038268343236508968;0;0;0;0;0
6.3024469090656901;-0.0047139673682599411;0;0;0;0;0
6.3127282253936929;-0.0055557023301960155;0;0;0;0;0
6.3230095417216958;-0.0063439328416364741;0;0;0;0;0
6.3332908580496987;-0.0070710678118654649;0;0;0;0;0
6.3435721743777016;-0.0077301045336273808;0;0;0;0;0
6.3538534907057036;-0.0083146961230254404;0;0;0;0;0
6.3641348070337065;-0.0088192126434835216;0;0;0;0;0
6.3744161233617094;-0.0092387953251128561;0;0;0;0;0
6.3846974396897123;-0.0095694033573220892;0;0;0;0;0
6.3949787560177151;-0.0098078528040323118;0;0;0;0;0
6.405260072345718;-0.0099518472667219689;0;0;0;0;0
6.4155413886737209;-0.01;0;0;0;0;0
6.4258227050017229;-0.0099518472667219689;0;0;0;0;0
6.4361040213297258;-0.0098078528040323153;0;0;0;0;0
6.4463853376577287;-0.0095694033573220944;0;0;0;0;0
6.4566666539857316;-0.0092387953251128613;0;0;0;0;0
6.4669479703137345;-0.0088192126434835615;0;0;0;0;0
6.4772292866417374;-0.0083146961230254474;0;0;0;0;0
6.4875106029697402;-0.0077301045336273435;0;0;0;0;0
6.4977919192977422;-0.0070710678118655239;0;0;0;0;0
6.5080732356257451;-0.0063439328416364828;0;0;0;0;0
6.518354551953748;-0.0055557023301960259;0;0;0;0;0
6.5286358682817509;-0.0047139673682599524;0;0;0;0;0
6.5389171846097538;-0.003826834323650908;0;0;0;0;0
6.5491985009377567;-0.0029028467725446035;0;0;0;0;0
6.5594798172657596;-0.0019509032201612303;0;0;0;0;0
6.5697611335937616;-0.00098017140329566244;0;0;0;0;0
6.5800424499217645;-2.4492935982947065e-17;0;0;0;0;0
6.5903237662497673;0.00098017140329561365;0;0;0;0;0
6.6006050825777702;0.001950903220161252;0;0;0;0;0
6.6108863989057731;0.0029028467725446244;0;0;0;0;0
6.621167715233776;0.0038268343236509284;0;0;0;0;0
6.6314490315617789;0.0047139673682600339;0;0;0;0;0
6.6417303478897809;0.0055557023301959852;0;0;0;0;0
6.6520116642177838;0.0063439328416364446;0;0;0;0;0
6.6622929805457867;0.0070710678118654892;0;0;0;0;0
6.6725742968737896;0.0077301045336273582;0;0;0;0;0
6.6828556132017924;0.0083146961230254595;0;0;0;0;0
6.6931369295297953;0.0088192126434835719;0;0;0;0;0
6.7034182458577973;0.0092387953251128439;0;0;0;0;0
6.7136995621858002;0.0095694033573220996;0;0;0;0;0
6.7239808785138031;0.0098078528040323049;0;0;0;0;0
6.734262194841806;0.0099518472667219655;0;0;0;0;0
6.7445435111698089;0.01;0;0;0;0;0
6.7548248274978118;0.0099518472667219655;0;0;0;0;0
6.7651061438258147;0.0098078528040323083;0;0;0;0;0
6.7753874601538167;0.0095694033573221048;0;0;0;0;0
6.7856687764818195;0.0092387953251129029;0;0;0;0;0
6.7959500928098224;0.0088192126434835458;0;0;0;0;0
6.8062314091378253;0.0083146961230254682;0;0;0;0;0
6.8165127254658282;0.0077301045336273209;0;0;0;0;0
6.8267940417938311;0.0070710678118654493;0;0;0;0;0
6.837075358121834;0.0063439328416364576;0;0;0;0;0
6.847356674449836;0.0055557023301960563;0;0;0;0;0
6.8576379907778389;0.0047139673682600469;0;0;0;0;0
6.8679193071058418;0.0038268343236508764;0;0;0;0;0
6.8782006234338446;0.0029028467725446391;0;0;0;0;0
6.8884819397618475;0.0019509032201613361;0;0;0;0;0
6.8987632560898504;0.00098017140329555771;0;0;0;0;0
6.9090445724178533;-9.8095540059105926e-18;0;0;0;0;0
6.9193258887458553;-0.00098017140329557701;0;0;0;0;0
6.9296072050738582;-0.001950903220161216;0;0;0;0;0
6.9398885214018611;-0.0029028467725446573;0;0;0;0;0
6.950169837729864;-0.0038268343236508946;0;0;0;0;0
6.9604511540578669;-0.0047139673682599385;0;0;0;0;0
6.9707324703858697;-0.0055557023301960728;0;0;0;0;0
6.9810137867138726;-0.0063439328416364715;0;0;0;0;0
6.9912951030418746;-0.0070710678118654641;0;0;0;0;0
7.0015764193698775;-0.0077301045336273348;0;0;0;0;0
7.0118577356978804;-0.0083146961230254786;0;0;0;0;0
7.0221390520258833;-0.0088192126434835545;0;0;0;0;0
7.0324203683538862;-0.0092387953251128561;0;0;0;0;0
7.0427016846818891;-0.00956940335732211;0;0;0;0;0
7.052983001009892;-0.0098078528040323118;0;0;0;0;0
7.0632643173378939;-0.0099518472667219689;0;0;0;0;0
7.0735456336658968;-0.01;0;0;0;0;0
7.0838269499938997;-0.009951847266721962;0;0;0;0;0
7.0941082663219026;-0.0098078528040323014;0;0;0;0;0
7.1043895826499055;-0.0095694033573220944;0;0;0;0;0
7.1146708989779084;-0.0092387953251128353;0;0;0;0;0
7.1249522153059104;-0.0088192126434835962;0;0;0;0;0
7.1352335316339133;-0.0083146961230254491;0;0;0;0;0
7.1455148479619162;-0.0077301045336273903;0;0;0;0;0
7.155796164289919;-0.0070710678118655257;0;0;0;0;0
7.1660774806179219;-0.0063439328416364307;0;0;0;0;0
7.1763587969459248;-0.0055557023301960277;0;0;0;0;0
7.1866401132739277;-0.0047139673682598917;0;0;0;0;0
7.1969214296019297;-0.0038268343236509757;0;0;0;0;0
7.2072027459299326;-0.0029028467725446057;0;0;0;0;0
7.2174840622579355;-0.0019509032201613025;0;0;0;0;0
7.2277653785859384;-0.00098017140329566483;0;0;0;0;0
7.2380466949139413;4.4112043994768248e-17;0;0;0;0;0
7.2483280112419441;0.00098017140329561127;0;0;0;0;0
7.258609327569947;0.0019509032201612498;0;0;0;0;0
7.268890643897949;0.0029028467725445545;0;0;0;0;0
7.2791719602259519;0.0038268343236509262;0;0;0;0;0
7.2894532765539548;0.0047139673682599697;0;0;0;0;0
7.2997345928819577;0.0055557023301959834;0;0;0;0;0
7.3100159092099606;0.0063439328416364984;0;0;0;0;0
7.3202972255379635;0.0070710678118654866;0;0;0;0;0
7.3305785418659664;0.0077301045336273556;0;0;0;0;0
7.3408598581939684;0.0083146961230254196;0;0;0;0;0
7.3511411745219712;0.0088192126434835701;0;0;0;0;0
7.3614224908499741;0.0092387953251128682;0;0;0;0;0
7.371703807177977;0.0095694033573220788;0;0;0;0;0
7.3819851235059799;0.009807852804032317;0;0;0;0;0
7.3922664398339828;0.0099518472667219724;0;0;0;0;0
7.4025477561619857;0.01;0;0;0;0;0
7.4128290724899877;0.0099518472667219741;0;0;0;0;0
7.4231103888179906;0.0098078528040323222;0;0;0;0;0
7.4333917051459935;0.009569403357322084;0;0;0;0;0
7.4436730214739963;0.0092387953251128769;0;0;0;0;0
7.4539543378019992;0.0088192126434835129;0;0;0;0;0
7.4642356541300021;0.00831469612302543;0;0;0;0;0
7.474516970458005;0.0077301045336273678;0;0;0;0;0
7.484798286786007;0.0070710678118655014;0;0;0;0;0
7.4950796031140099;0.006343932841636514;0;0;0;0;0
7.5053609194420128;0.0055557023301959999;0;0;0;0;0
7.5156422357700157;0.0047139673682599862;0;0;0;0;0
7.5259235520980186;0.003826834323650944;0;0;0;0;0
7.5362048684260214;0.0029028467725445727;0;0;0;0;0
7.5464861847540234;0.0019509032201612689;0;0;0;0;0
7.5567675010820263;0.00098017140329563078;0;0;0;0;0
7.5670488174100292;6.3694013168394139e-17;0;0;0;0;0
7.5773301337380321;-0.00098017140329564531;0;0;0;0;0
7.587611450066035;-0.0019509032201612834;0;0;0;0;0
7.5978927663940379;-0.0029028467725445875;0;0;0;0;0
7.6081740827220408;-0.0038268343236509579;0;0;0;0;0
7.6184553990500428;-0.0047139673682599992;0;0;0;0;0
7.6287367153780457;-0.0055557023301960121;0;0;0;0;0
7.6390180317060485;-0.0063439328416364151;0;0;0;0;0
7.6492993480340514;-0.0070710678118655118;0;0;0;0;0
7.6595806643620543;-0.0077301045336273782;0;0;0;0;0
7.6698619806900572;-0.0083146961230254387;0;0;0;0;0
7.6801432970180601;-0.0088192126434835857;0;0;0;0;0
7.6904246133460621;-0.0092387953251128283;0;0;0;0;0
7.700705929674065;-0.0095694033573220892;0;0;0;0;0
7.7109872460020679;-0.0098078528040322962;0;0;0;0;0
7.7212685623300708;-0.0099518472667219759;0;0;0;0;0
7.7315498786580736;-0.01;0;0;0;0;0
7.7418311949860765;-0.0099518472667219707;0;0;0;0;0
7.7521125113140794;-0.0098078528040322875;0;0;0;0;0
7.7623938276420814;-0.0095694033573221152;0;0;0;0;0
7.7726751439700843;-0.009238795325112863;0;0;0;0;0
7.7829564602980872;-0.0088192126434835632;0;0;0;0;0
7.7932377766260901;-0.008314696123025489;0;0;0;0;0
7.803519092954093;-0.007730104533627347;0;0;0;0;0
7.8138004092820958;-0.0070710678118654771;0;0;0;0;0
7.8240817256100987;-0.006343932841636377;0;0;0;0;0
7.8343630419381007;-0.0055557023301960893;0;0;0;0;0
7.8446443582661036;-0.0047139673682599567;0;0;0;0;0
7.8549256745941065;-0.0038268343236509124;0;0;0;0;0
7.8652069909221094;-0.002902846772544676;0;0;0;0;0
7.8754883072501123;-0.0019509032201612353;0;0;0;0;0
7.8857696235781152;-0.00098017140329559652;0;0;0;0;0
7.8960509399061181;-2.9391523179536474e-17;0;0;0;0;0
7.9063322562341201;0.00098017140329553797;0;0;0;0;0
7.9166135725621229;0.0019509032201613168;0;0;0;0;0
7.9268948888901258;0.00290284677254462;0;0;0;0;0
7.9371762052181287;0.0038268343236508577;0;0;0;0;0
7.9474575215461316;0.0047139673682600296;0;0;0;0;0
7.9577388378741345;0.0055557023301960398;0;0;0;0;0
7.9680201542021365;0.006343932841636442;0;0;0;0;0
7.9783014705301394;0.0070710678118654363;0;0;0;0;0
7.9885827868581423;0.007730104533627399;0;0;0;0;0
7.9988641031861452;0.0083146961230254578;0;0;0;0;0
8.009145419514148;0.0088192126434835354;0;0;0;0;0
8.0194267358421509;0.009238795325112896;0;0;0;0;0
8.0297080521701538;0.0095694033573220979;0;0;0;0;0
8.0399893684981567;0.0098078528040323031;0;0;0;0;0
8.0502706848261596;0.0099518472667219776;0;0;0;0;0
8.0605520011541625;0.01;0;0;0;0;0
8.0708333174821654;0.0099518472667219672;0;0;0;0;0
8.0811146338101665;0.0098078528040323083;0;0;0;0;0
8.0913959501381694;0.0095694033573221048;0;0;0;0;0
8.1016772664661723;0.0092387953251129046;0;0;0;0;0
8.1119585827941751;0.0088192126434835476;0;0;0;0;0
8.122239899122178;0.0083146961230254699;0;0;0;0;0
8.1325212154501809;0.0077301045336274146;0;0;0;0;0
8.1428025317781838;0.0070710678118654528;0;0;0;0;0
8.1530838481061867;0.0063439328416364602;0;0;0;0;0
8.1633651644341896;0.0055557023301960606;0;0;0;0;0
8.1736464807621925;0.0047139673682599264;0;0;0;0;0
8.1839277970901954;0.0038268343236508807;0;0;0;0;0
8.1942091134181982;0.0029028467725445073;0;0;0;0;0
8.2044904297462011;0.0019509032201612015;0;0;0;0;0
8.2147717460742022;0.00098017140329570386;0;0;0;0;0
8.2250530624022051;1.3719758034269886e-16;0;0;0;0;0
8.235334378730208;-0.00098017140329557224;0;0;0;0;0
8.2456156950582109;-0.0019509032201612112;0;0;0;0;0
8.2558970113862138;-0.002902846772544653;0;0;0;0;0
8.2661783277142167;-0.0038268343236508903;0;0;0;0;0
8.2764596440422196;-0.004713967368259935;0;0;0;0;0
8.2867409603702225;-0.0055557023301960684;0;0;0;0;0
8.2970222766982253;-0.006343932841636468;0;0;0;0;0
8.3073035930262282;-0.0070710678118654606;0;0;0;0;0
8.3175849093542311;-0.0077301045336274216;0;0;0;0;0
8.327866225682234;-0.0083146961230254751;0;0;0;0;0
8.3381475420102369;-0.0088192126434835511;0;0;0;0;0
8.3484288583382398;-0.0092387953251129081;0;0;0;0;0
8.3587101746662409;-0.0095694033573220667;0;0;0;0;0
8.3689914909942438;-0.0098078528040322823;0;0;0;0;0
8.3792728073222467;-0.0099518472667219689;0;0;0;0;0
8.3895541236502496;-0.01;0;0;0;0;0
8.3998354399782524;-0.0099518472667219776;0;0;0;0;0
8.4101167563062553;-0.0098078528040323014;0;0;0;0;0
8.4203980726342582;-0.0095694033573220962;0;0;0;0;0
8.4306793889622611;-0.0092387953251128925;0;0;0;0;0
8.440960705290264;-0.008819212643483532;0;0;0;0;0
8.4512420216182669;-0.0083146961230254508;0;0;0;0;0
8.4615233379462698;-0.0077301045336273036;0;0;0;0;0
8.4718046542742727;-0.0070710678118654285;0;0;0;0;0
8.4820859706022755;-0.0063439328416364342;0;0;0;0;0
8.4923672869302784;-0.0055557023301959141;0;0;0;0;0
8.5026486032582795;-0.0047139673682600209;0;0;0;0;0
8.5129299195862824;-0.0038268343236509805;0;0;0;0;0
8.5232112359142853;-0.0029028467725446105;0;0;0;0;0
8.5334925522422882;-0.0019509032201613073;0;0;0;0;0
8.5437738685702911;-0.00098017140329566981;0;0;0;0;0
8.554055184898294;3.9213456798178833e-17;0;0;0;0;0
8.5643365012262969;0.00098017140329560628;0;0;0;0;0
8.5746178175542997;0.0019509032201612448;0;0;0;0;0
8.5848991338823026;0.0029028467725446855;0;0;0;0;0
8.5951804502103055;0.0038268343236509219;0;0;0;0;0
8.6054617665383084;0.0047139673682599645;0;0;0;0;0
8.6157430828663113;0.0055557023301960971;0;0;0;0;0
8.6260243991943142;0.0063439328416364949;0;0;0;0;0
8.6363057155223153;0.0070710678118653834;0;0;0;0;0
8.6465870318503182;0.0077301045336273522;0;0;0;0;0
8.6568683481783211;0.0083146961230254161;0;0;0;0;0
8.667149664506324;0.0088192126434835007;0;0;0;0;0
8.6774309808343268;0.0092387953251128682;0;0;0;0;0
8.6877122971623297;0.0095694033573220771;0;0;0;0;0
8.6979936134903326;0.0098078528040322892;0;0;0;0;0
8.7082749298183355;0.0099518472667219724;0;0;0;0;0
8.7185562461463384;0.01;0;0;0;0;0
8.7288375624743413;0.0099518472667219603;0;0;0;0;0
8.7391188788023442;0.0098078528040322945;0;0;0;0;0
8.7494001951303471;0.0095694033573220857;0;0;0;0;0
8.7596815114583499;0.0092387953251128248;0;0;0;0;0
8.7699628277863528;0.0088192126434835146;0;0;0;0;0
8.7802441441143539;0.0083146961230255115;0;0;0;0;0
8.7905254604423568;0.0077301045336273713;0;0;0;0;0
8.8008067767703597;0.0070710678118655048;0;0;0;0;0
8.8110880930983626;0.0063439328416365175;0;0;0;0;0
8.8213694094263655;0.0055557023301960034;0;0;0;0;0
8.8316507257543684;0.0047139673682599905;0;0;0;0;0
8.8419320420823713;0.0038268343236509488;0;0;0;0;0
8.8522133584103742;0.0029028467725445779;0;0;0;0;0
8.862494674738377;0.0019509032201612737;0;0;0;0;0
8.8727759910663799;0.00098017140329563555;0;0;0;0;0
8.8830573073943828;-7.3515946787036487e-17;0;0;0;0;0
8.8933386237223857;-0.00098017140329564054;0;0;0;0;0
8.9036199400503886;-0.0019509032201614179;0;0;0;0;0
8.9139012563783897;-0.0029028467725445823;0;0;0;0;0
8.9241825727063926;-0.0038268343236508217;0;0;0;0;0
8.9344638890343955;-0.00471396736825987;0;0;0;0;0
8.9447452053623984;-0.0055557023301960077;0;0;0;0;0
8.9550265216904013;-0.0063439328416364116;0;0;0;0;0
8.9653078380184041;-0.0070710678118654086;0;0;0;0;0
8.975589154346407;-0.0077301045336273747;0;0;0;0;0
8.9858704706744099;-0.0083146961230254352;0;0;0;0;0
8.9961517870024128;-0.008819212643483584;0;0;0;0;0
9.0064331033304157;-0.0092387953251128804;0;0;0;0;0
9.0167144196584186;-0.0095694033573220875;0;0;0;0;0
9.0269957359864215;-0.0098078528040323239;0;0;0;0;0
9.0372770523144244;-0.0099518472667219759;0;0;0;0;0
9.0475583686424272;-0.01;0;0;0;0;0
9.0578396849704284;-0.0099518472667219707;0;0;0;0;0
9.0681210012984312;-0.0098078528040323153;0;0;0;0;0
9.0784023176264341;-0.009569403357322117;0;0;0;0;0
9.088683633954437;-0.0092387953251128647;0;0;0;0;0
9.0989649502824399;-0.0088192126434835667;0;0;0;0;0
9.1092462666104428;-0.0083146961230254925;0;0;0;0;0
9.1195275829384457;-0.0077301045336273504;0;0;0;0;0
9.1298088992664486;-0.0070710678118654805;0;0;0;0;0
9.1400902155944515;-0.0063439328416364906;0;0;0;0;0
9.1503715319224543;-0.0055557023301959756;0;0;0;0;0
9.1606528482504572;-0.0047139673682599602;0;0;0;0;0
9.1709341645784601;-0.0038268343236507857;0;0;0;0;0
9.181215480906463;-0.002902846772544545;0;0;0;0;0
9.1914967972344659;-0.0019509032201612401;0;0;0;0;0
9.201778113562467;-0.00098017140329574289;0;0;0;0;0
9.2120594298904699;-3.4290110376125888e-17;0;0;0;0;0
9.2223407462184728;0.0009801714032955332;0;0;0;0;0
9.2326220625464757;0.0019509032201611729;0;0;0;0;0
9.2429033788744785;0.0029028467725446152;0;0;0;0;0
9.2531846952024814;0.0038268343236508534;0;0;0;0;0
9.2634660115304843;0.0047139673682600252;0;0;0;0;0
9.2737473278584872;0.0055557023301960363;0;0;0;0;0
9.2840286441864901;0.0063439328416364385;0;0;0;0;0
9.294309960514493;0.0070710678118655326;0;0;0;0;0
9.3045912768424959;0.0077301045336273964;0;0;0;0;0
9.3148725931704988;0.0083146961230254543;0;0;0;0;0
9.3251539094985016;0.0088192126434836014;0;0;0;0;0
9.3354352258265028;0.0092387953251128387;0;0;0;0;0
9.3457165421545056;0.0095694033573220563;0;0;0;0;0
9.3559978584825085;0.0098078528040323031;0;0;0;0;0
9.3662791748105114;0.0099518472667219637;0;0;0;0;0
9.3765604911385143;0.01;0;0;0;0;0
9.3868418074665172;0.0099518472667219672;0;0;0;0;0
9.3971231237945201;0.0098078528040323083;0;0;0;0;0
9.407404440122523;0.0095694033573221066;0;0;0;0;0
9.4176857564505259;0.0092387953251128526;0;0;0;0;0
9.4279670727785287;0.0088192126434835493;0;0;0;0;0
9.4382483891065316;0.0083146961230253953;0;0;0;0;0
9.4485297054345345;0.0077301045336273279;0;0;0;0;0
9.4588110217625374;0.0070710678118654563;0;0;0;0;0
9.4690923380905403;0.0063439328416363544;0;0;0;0;0
9.4793736544185414;0.0055557023301960641;0;0;0;0;0
9.4896549707465443;0.0047139673682600556;0;0;0;0;0
9.4999362870745472;0.0038268343236508851;0;0;0;0;0
9.5102176034025501;0.0029028467725446478;0;0;0;0;0
9.520498919730553;0.0019509032201613459;0;0;0;0;0
9.5307802360585558;0.00098017140329556725;0;0;0;0;0
9.5410615523865587;-1.2379612731767154e-20;0;0;0;0;0
9.5513428687145616;-0.00098017140329556725;0;0;0;0;0
9.5616241850425645;-0.0019509032201613459;0;0;0;0;0
9.5719055013705674;-0.0029028467725446482;0;0;0;0;0
9.5821868176985703;-0.0038268343236508851;0;0;0;0;0
9.5924681340265732;-0.0047139673682600556;0;0;0;0;0
9.6027494503545761;-0.005555702330196065;0;0;0;0;0
9.6130307666825789;-0.0063439328416364637;0;0;0;0;0
9.6233120830105801;-0.0070710678118654563;0;0;0;0;0
9.6335933993385829;-0.0077301045336273279;0;0;0;0;0
9.6438747156665858;-0.0083146961230253953;0;0;0;0;0
9.6541560319945887;-0.0088192126434835493;0;0;0;0;0
9.6644373483225916;-0.0092387953251128526;0;0;0;0;0
9.6747186646505945;-0.0095694033573220667;0;0;0;0;0
9.6849999809785974;-0.0098078528040323083;0;0;0;0;0
9.6952812973066003;-0.0099518472667219672;0;0;0;0;0
9.7055626136346032;-0.01;0;0;0;0;0
9.715843929962606;-0.0099518472667219637;0;0;0;0;0
9.7261252462906089;-0.0098078528040323031;0;0;0;0;0
9.7364065626186118;-0.0095694033573220563;0;0;0;0;0
9.7466878789466147;-0.0092387953251128387;0;0;0;0;0
9.7569691952746158;-0.0088192126434836014;0;0;0;0;0
9.7672505116026187;-0.0083146961230254543;0;0;0;0;0
9.7775318279306216;-0.0077301045336273964;0;0;0;0;0
9.7878131442586245;-0.0070710678118655326;0;0;0;0;0
9.7980944605866274;-0.0063439328416364385;0;0;0;0;0
9.8083757769146303;-0.0055557023301960363;0;0;0;0;0
9.8186570932426331;-0.0047139673682600252;0;0;0;0;0
9.828938409570636;-0.0038268343236508534;0;0;0;0;0
9.8392197258986389;-0.0029028467725446152;0;0;0;0;0
9.8495010422266418;-0.0019509032201613123;0;0;0;0;0
9.8597823585546447;-0.0009801714032955332;0;0;0;0;0
9.8700636748826476;3.4314869601589425e-17;0;0;0;0;0
9.8803449912106505;0.00098017140329560151;0;0;0;0;0
9.8906263075386534;0.0019509032201613793;0;0;0;0;0
9.9009076238666545;0.002902846772544545;0;0;0;0;0
9.9111889401946573;0.0038268343236507857;0;0;0;0;0
9.9214702565226602;0.0047139673682599602;0;0;0;0;0
9.9317515728506631;0.0055557023301959756;0;0;0;0;0
9.942032889178666;0.0063439328416363804;0;0;0;0;0
9.9523142055066689;0.0070710678118654805;0;0;0;0;0
9.9625955218346718;0.0077301045336273504;0;0;0;0;0
9.9728768381626747;0.0083146961230254925;0;0;0;0;0
9.9831581544906776;0.0088192126434835667;0;0;0;0;0
9.9934394708186804;0.0092387953251128647;0;0;0;0;0
10.003720787146683;0.009569403357322117;0;0;0;0;0
10.014002103474686;0.0098078528040323153;0;0;0;0;0
10.024283419802689;0.0099518472667219707;0;0;0;0;0
10.034564736130692;0.01;0;0;0;0;0
10.044846052458693;0.0099518472667219759;0;0;0;0;0
10.055127368786696;0.0098078528040323239;0;0;0;0;0
10.065408685114699;0.0095694033573220875;0;0;0;0;0
10.075690001442702;0.0092387953251128804;0;0;0;0;0
