#Time;LinearAccX;LinearAccY;LinearAccZ;AngularAccX;AngularAccY;AngularAccZ
0;0;0;0;0;0;0
0.0066736122195944396;0.00098017140329560606;0;0;0;0;0
0.013347224439188879;0.0019509032201612826;0;0;0;0;0
0.02002083665878332;0.0029028467725446235;0;0;0;0;0
0.026694448878377759;0.0038268343236508981;0;0;0;0;0
0.033368061097972197;0.0047139673682599767;0;0;0;0;0
0.04004167331756664;0.0055557023301960216;0;0;0;0;0
0.046715285537161075;0.006343932841636455;0;0;0;0;0
0.053388897756755517;0.0070710678118654745;0;0;0;0;0
0.060062509976349959;0.0077301045336273704;0;0;0;0;0
0.066736122195944395;0.0083146961230254526;0;0;0;0;0
0.07340973441553883;0.0088192126434835493;0;0;0;0;0
0.080083346635133279;0.0092387953251128682;0;0;0;0;0
0.086756958854727714;0.0095694033573220892;0;0;0;0;0
0.09343057107432215;0.0098078528040323049;0;0;0;0;0
0.1001041832939166;0.0099518472667219689;0;0;0;0;0
0.10677779551351103;0.01;0;0;0;0;0
0.11345140773310547;0.0099518472667219689;0;0;0;0;0
0.12012501995269992;0.0098078528040323049;0;0;0;0;0
0.12679863217229434;0.0095694033573220892;0;0;0;0;0
0.13347224439188879;0.0092387953251128682;0;0;0;0;0
0.14014585661148324;0.0088192126434835511;0;0;0;0;0
0.14681946883107766;0.0083146961230254543;0;0;0;0;0
0.15349308105067211;0.0077301045336273713;0;0;0;0;0
0.16016669327026656;0.0070710678118654762;0;0;0;0;0
0.16684030548986098;0.006343932841636455;0;0;0;0;0
0.17351391770945543;0.0055557023301960216;0;0;0;0;0
0.18018752992904988;0.0047139673682599741;0;0;0;0;0
0.1868611421486443;0.0038268343236508989;0;0;0;0;0
0.19353475436823875;0.0029028467725446239;0;0;0;0;0
0.2002083665878332;0.0019509032201612817;0;0;0;0;0
0.20688197880742762;0.00098017140329560823;0;0;0;0;0
0.21355559102702207;1.2246467991473532e-18;0;0;0;0;0
0.22022920324661652;-0.00098017140329560585;0;0;0;0;0
0.22690281546621094;-0.0019509032201612791;0;0;0;0;0
0.23357642768580539;-0.0029028467725446257;0;0;0;0;0
0.24025003990539984;-0.0038268343236509007;0;0;0;0;0
0.24692365212499426;-0.0047139673682599767;0;0;0;0;0
0.25359726434458868;-0.0055557023301960199;0;0;0;0;0
0.26027087656418313;-0.0063439328416364524;0;0;0;0;0
0.26694448878377758;-0.0070710678118654745;0;0;0;0;0
0.27361810100337203;-0.0077301045336273721;0;0;0;0;0
0.28029171322296648;-0.0083146961230254526;0;0;0;0;0
0.28696532544256093;-0.0088192126434835528;0;0;0;0;0
0.29363893766215532;-0.0092387953251128647;0;0;0;0;0
0.30031254988174977;-0.0095694033573220892;0;0;0;0;0
0.30698616210134422;-0.0098078528040323031;0;0;0;0;0
0.31365977432093867;-0.0099518472667219689;0;0;0;0;0
0.32033338654053312;-0.01;0;0;0;0;0
0.32700699876012757;-0.0099518472667219689;0;0;0;0;0
0.33368061097972196;-0.0098078528040323049;0;0;0;0;0
0.34035422319931641;-0.0095694033573220892;0;0;0;0;0
0.34702783541891086;-0.0092387953251128665;0;0;0;0;0
0.35370144763850531;-0.0088192126434835511;0;0;0;0;0
0.36037505985809976;-0.0083146961230254508;0;0;0;0;0
0.3670486720776942;-0.0077301045336273687;0;0;0;0;0
0.3737222842972886;-0.0070710678118654771;0;0;0;0;0
0.38039589651688305;-0.0063439328416364594;0;0;0;0;0
0.3870695087364775;-0.0055557023301960216;0;0;0;0;0
0.39374312095607195;-0.0047139673682599793;0;0;0;0;0
0.4004167331756664;-0.0038268343236508959;0;0;0;0;0
0.40709034539526084;-0.0029028467725446161;0;0;0;0;0
0.41376395761485524;-0.0019509032201612873;0;0;0;0;0
0.42043756983444969;-0.00098017140329560498;0;0;0;0;0
0.42711118205404414;-2.4492935982947064e-18;0;0;0;0;0
0.43378479427363859;0.0009801714032956091;0;0;0;0;0
0.44045840649323303;0.0019509032201612826;0;0;0;0;0
0.44713201871282743;0.00290284677254462;0;0;0;0;0
0.45380563093242188;0.0038268343236508911;0;0;0;0;0
0.46047924315201633;0.0047139673682599758;0;0;0;0;0
0.46715285537161078;0.0055557023301960251;0;0;0;0;0
0.47382646759120522;0.0063439328416364559;0;0;0;0;0
0.48050007981079967;0.0070710678118654788;0;0;0;0;0
0.48717369203039407;0.007730104533627366;0;0;0;0;0
0.49384730424998852;0.0083146961230254526;0;0;0;0;0
0.50052091646958297;0.0088192126434835493;0;0;0;0;0
0.50719452868917736;0.0092387953251128647;0;0;0;0;0
0.51386814090877186;0.0095694033573220892;0;0;0;0;0
0.52054175312836626;0.0098078528040323031;0;0;0;0;0
0.52721536534796076;0.0099518472667219689;0;0;0;0;0
0.53388897756755516;0.01;0;0;0;0;0
0.54056258978714966;0.0099518472667219689;0;0;0;0;0
0.54723620200674405;0.0098078528040323031;0;0;0;0;0
0.55390981422633845;0.0095694033573220927;0;0;0;0;0
0.56058342644593295;0.0092387953251128682;0;0;0;0;0
0.56725703866552735;0.0088192126434835511;0;0;0;0;0
0.57393065088512185;0.0083146961230254456;0;0;0;0;0
0.58060426310471625;0.0077301045336273756;0;0;0;0;0
0.58727787532431064;0.007071067811865484;0;0;0;0;0
0.59395148754390514;0.0063439328416364541;0;0;0;0;0
0.60062509976349954;0.0055557023301960233;0;0;0;0;0
0.60729871198309404;0.0047139673682599645;0;0;0;0;0
0.61397232420268844;0.003826834323650905;0;0;0;0;0
0.62064593642228294;0.0029028467725446178;0;0;0;0;0
0.62731954864187733;0.0019509032201612798;0;0;0;0;0
0.63399316086147173;0.00098017140329560628;0;0;0;0;0
0.64066677308106623;3.6739403974420592e-18;0;0;0;0;0
0.64734038530066063;-0.00098017140329559891;0;0;0;0;0
0.65401399752025513;-0.0019509032201612899;0;0;0;0;0
0.66068760973984952;-0.0029028467725446278;0;0;0;0;0
0.66736122195944392;-0.0038268343236508985;0;0;0;0;0
0.67403483417903842;-0.0047139673682599741;0;0;0;0;0
0.68070844639863282;-0.0055557023301960173;0;0;0;0;0
0.68738205861822732;-0.006343932841636462;0;0;0;0;0
0.69405567083782171;-0.0070710678118654788;0;0;0;0;0
0.70072928305741611;-0.0077301045336273591;0;0;0;0;0
0.70740289527701061;-0.0083146961230254508;0;0;0;0;0
0.71407650749660501;-0.0088192126434835493;0;0;0;0;0
0.72075011971619951;-0.0092387953251128717;0;0;0;0;0
0.7274237319357939;-0.0095694033573220909;0;0;0;0;0
0.73409734415538841;-0.0098078528040323049;0;0;0;0;0
0.7407709563749828;-0.0099518472667219689;0;0;0;0;0
0.7474445685945772;-0.01;0;0;0;0;0
0.7541181808141717;-0.0099518472667219689;0;0;0;0;0
0.7607917930337661;-0.0098078528040323066;0;0;0;0;0
0.7674654052533606;-0.0095694033573220875;0;0;0;0;0
0.77413901747295499;-0.0092387953251128682;0;0;0;0;0
0.78081262969254939;-0.0088192126434835511;0;0;0;0;0
0.78748624191214389;-0.008314696123025456;0;0;0;0;0
0.79415985413173829;-0.0077301045336273756;0;0;0;0;0
0.80083346635133279;-0.0070710678118654727;0;0;0;0;0
0.80750707857092718;-0.0063439328416364541;0;0;0;0;0
0.81418069079052169;-0.0055557023301960095;0;0;0;0;0
0.82085430301011608;-0.0047139673682599819;0;0;0;0;0
0.82752791522971048;-0.0038268343236509063;0;0;0;0;0
0.83420152744930498;-0.0029028467725446187;0;0;0;0;0
0.84087513966889937;-0.0019509032201612808;0;0;0;0;0
0.84754875188849388;-0.00098017140329560758;0;0;0;0;0
0.85422236410808827;-4.8985871965894128e-18;0;0;0;0;0
0.86089597632768267;0.00098017140329559782;0;0;0;0;0
0.86756958854727717;0.0019509032201612886;0;0;0;0;0
0.87424320076687156;0.0029028467725446261;0;0;0;0;0
0.88091681298646607;0.0038268343236508972;0;0;0;0;0
0.88759042520606046;0.0047139673682599732;0;0;0;0;0
0.89426403742565486;0.0055557023301960164;0;0;0;0;0
0.90093764964524936;0.0063439328416364602;0;0;0;0;0
0.90761126186484375;0.0070710678118654658;0;0;0;0;0
0.91428487408443826;0.0077301045336273704;0;0;0;0;0
0.92095848630403265;0.0083146961230254508;0;0;0;0;0
0.92763209852362716;0.0088192126434835563;0;0;0;0;0
0.93430571074322155;0.0092387953251128717;0;0;0;0;0
0.94097932296281594;0.0095694033573220857;0;0;0;0;0
0.94765293518241045;0.0098078528040323049;0;0;0;0;0
0.95432654740200484;0.0099518472667219689;0;0;0;0;0
0.96100015962159935;0.01;0;0;0;0;0
0.96767377184119374;0.0099518472667219689;0;0;0;0;0
0.97434738406078814;0.0098078528040323066;0;0;0;0;0
0.98102099628038264;0.0095694033573220892;0;0;0;0;0
0.98769460849997703;0.0092387953251128682;0;0;0;0;0
0.99436822071957154;0.0088192126434835441;0;0;0;0;0
1.0010418329391659;0.0083146961230254578;0;0;0;0;0
1.0077154451587604;0.007730104533627366;0;0;0;0;0
1.0143890573783547;0.0070710678118654858;0;0;0;0;0
1.0210626695979492;0.006343932841636455;0;0;0;0;0
1.0277362818175437;0.0055557023301960251;0;0;0;0;0
1.0344098940371382;0.0047139673682599671;0;0;0;0;0
1.0410835062567325;0.0038268343236509072;0;0;0;0;0
1.047757118476327;0.00290284677254462;0;0;0;0;0
1.0544307306959215;0.0019509032201612821;0;0;0;0;0
1.0611043429155158;0.00098017140329562645;0;0;0;0;0
1.0677779551351103;6.1232339957367663e-18;0;0;0;0;0
1.0744515673547048;-0.0009801714032956143;0;0;0;0;0
1.0811251795742993;-0.0019509032201613049;0;0;0;0;0
1.0877987917938936;-0.0029028467725446083;0;0;0;0;0
1.0944724040134881;-0.0038268343236509124;0;0;0;0;0
1.1011460162330826;-0.0047139673682599879;0;0;0;0;0
1.1078196284526769;-0.0055557023301960008;0;0;0;0;0
1.1144932406722714;-0.0063439328416364594;0;0;0;0;0
1.1211668528918659;-0.0070710678118654771;0;0;0;0;0
1.1278404651114602;-0.0077301045336273687;0;0;0;0;0
1.1345140773310547;-0.0083146961230254508;0;0;0;0;0
1.1411876895506492;-0.0088192126434835476;0;0;0;0;0
1.1478613017702437;-0.0092387953251128769;0;0;0;0;0
1.154534913989838;-0.0095694033573220857;0;0;0;0;0
1.1612085262094325;-0.0098078528040323014;0;0;0;0;0
1.167882138429027;-0.0099518472667219707;0;0;0;0;0
1.1745557506486213;-0.01;0;0;0;0;0
1.1812293628682158;-0.0099518472667219689;0;0;0;0;0
1.1879029750878103;-0.0098078528040323031;0;0;0;0;0
1.1945765873074048;-0.0095694033573220892;0;0;0;0;0
1.2012501995269991;-0.0092387953251128682;0;0;0;0;0
1.2079238117465936;-0.0088192126434835528;0;0;0;0;0
1.2145974239661881;-0.0083146961230254387;0;0;0;0;0
1.2212710361857824;-0.0077301045336273782;0;0;0;0;0
1.2279446484053769;-0.0070710678118654866;0;0;0;0;0
1.2346182606249714;-0.0063439328416364429;0;0;0;0;0
1.2412918728445659;-0.0055557023301960121;0;0;0;0;0
1.2479654850641602;-0.004713967368259968;0;0;0;0;0
1.2546390972837547;-0.0038268343236508924;0;0;0;0;0
1.2613127095033492;-0.0029028467725446213;0;0;0;0;0
1.2679863217229435;-0.0019509032201612834;0;0;0;0;0
1.274659933942538;-0.00098017140329560997;0;0;0;0;0
1.2813335461621325;-7.3478807948841184e-18;0;0;0;0;0
1.2880071583817267;0.00098017140329559544;0;0;0;0;0
1.2946807706013213;0.0019509032201612689;0;0;0;0;0
1.3013543828209158;0.0029028467725446413;0;0;0;0;0
1.3080279950405103;0.0038268343236509111;0;0;0;0;0
1.3147016072601045;0.0047139673682599558;0;0;0;0;0
1.321375219479699;0.0055557023301960285;0;0;0;0;0
1.3280488316992936;0.0063439328416364585;0;0;0;0;0
1.3347224439188878;0.0070710678118654762;0;0;0;0;0
1.3413960561384823;0.0077301045336273678;0;0;0;0;0
1.3480696683580768;0.0083146961230254491;0;0;0;0;0
1.3547432805776713;0.0088192126434835632;0;0;0;0;0
1.3614168927972656;0.009238795325112863;0;0;0;0;0
1.3680905050168601;0.009569403357322084;0;0;0;0;0
1.3747641172364546;0.0098078528040323083;0;0;0;0;0
1.3814377294560489;0.0099518472667219672;0;0;0;0;0
1.3881113416756434;0.01;0;0;0;0;0
1.3947849538952379;0.0099518472667219689;0;0;0;0;0
1.4014585661148322;0.0098078528040323118;0;0;0;0;0
1.4081321783344267;0.0095694033573220892;0;0;0;0;0
1.4148057905540212;0.0092387953251128682;0;0;0;0;0
1.4214794027736157;0.0088192126434835372;0;0;0;0;0
1.42815301499321;0.0083146961230254578;0;0;0;0;0
1.4348266272128045;0.0077301045336273791;0;0;0;0;0
1.441500239432399;0.0070710678118654623;0;0;0;0;0
1.4481738516519933;0.0063439328416364706;0;0;0;0;0
1.4548474638715878;0.0055557023301960129;0;0;0;0;0
1.4615210760911823;0.0047139673682599697;0;0;0;0;0
1.4681946883107768;0.0038268343236508933;0;0;0;0;0
1.4748683005303711;0.0029028467725446222;0;0;0;0;0
1.4815419127499656;0.0019509032201612845;0;0;0;0;0
1.4882155249695601;0.00098017140329561127;0;0;0;0;0
1.4948891371891544;8.572527594031472e-18;0;0;0;0;0
1.5015627494087489;-0.00098017140329559414;0;0;0;0;0
1.5082363616283434;-0.0019509032201613025;0;0;0;0;0
1.5149099738479377;-0.0029028467725446057;0;0;0;0;0
1.5215835860675322;-0.0038268343236508772;0;0;0;0;0
1.5282571982871267;-0.0047139673682599853;0;0;0;0;0
1.5349308105067212;-0.0055557023301960277;0;0;0;0;0
1.5416044227263155;-0.0063439328416364576;0;0;0;0;0
1.54827803494591;-0.0070710678118654762;0;0;0;0;0
1.5549516471655045;-0.0077301045336273678;0;0;0;0;0
1.5616252593850988;-0.0083146961230254491;0;0;0;0;0
1.5682988716046933;-0.0088192126434835458;0;0;0;0;0
1.5749724838242878;-0.009238795325112863;0;0;0;0;0
1.5816460960438823;-0.0095694033573220944;0;0;0;0;0
1.5883197082634766;-0.0098078528040323014;0;0;0;0;0
1.5949933204830711;-0.0099518472667219707;0;0;0;0;0
1.6016669327026656;-0.01;0;0;0;0;0
1.6083405449222599;-0.0099518472667219724;0;0;0;0;0
1.6150141571418544;-0.0098078528040323049;0;0;0;0;0
1.6216877693614489;-0.0095694033573220892;0;0;0;0;0
1.6283613815810434;-0.0092387953251128561;0;0;0;0;0
1.6350349938006377;-0.0088192126434835545;0;0;0;0;0
1.6417086060202322;-0.0083146961230254595;0;0;0;0;0
1.6483822182398267;-0.0077301045336273565;0;0;0;0;0
1.655055830459421;-0.0070710678118654884;0;0;0;0;0
1.6617294426790155;-0.0063439328416364437;0;0;0;0;0
1.66840305489861;-0.0055557023301960138;0;0;0;0;0
1.6750766671182042;-0.0047139673682600018;0;0;0;0;0
1.6817502793377987;-0.0038268343236508946;0;0;0;0;0
1.6884238915573933;-0.0029028467725446235;0;0;0;0;0
1.6950975037769878;-0.0019509032201612858;0;0;0;0;0
1.701771115996582;-0.00098017140329561235;0;0;0;0;0
1.7084447282161765;-9.7971743931788255e-18;0;0;0;0;0
1.715118340435771;0.00098017140329562818;0;0;0;0;0
1.7217919526553653;0.0019509032201612665;0;0;0;0;0
1.7284655648749598;0.0029028467725446044;0;0;0;0;0
1.7351391770945543;0.0038268343236509089;0;0;0;0;0
1.7418127893141488;0.0047139673682599845;0;0;0;0;0
1.7484864015337431;0.0055557023301960277;0;0;0;0;0
1.7551600137533376;0.0063439328416364576;0;0;0;0;0
1.7618336259729321;0.0070710678118654745;0;0;0;0;0
1.7685072381925264;0.0077301045336273669;0;0;0;0;0
1.7751808504121209;0.0083146961230254474;0;0;0;0;0
1.7818544626317154;0.0088192126434835615;0;0;0;0;0
1.7885280748513097;0.0092387953251128613;0;0;0;0;0
1.7952016870709042;0.009569403357322084;0;0;0;0;0
1.8018752992904987;0.0098078528040323083;0;0;0;0;0
1.8085489115100932;0.0099518472667219707;0;0;0;0;0
1.8152225237296875;0.01;0;0;0;0;0
1.821896135949282;0.0099518472667219689;0;0;0;0;0
1.8285697481688765;0.0098078528040323049;0;0;0;0;0
1.8352433603884708;0.0095694033573220892;0;0;0;0;0
1.8419169726080653;0.00923879532511287;0;0;0;0;0
1.8485905848276598;0.0088192126434835545;0;0;0;0;0
1.8552641970472543;0.0083146961230254404;0;0;0;0;0
1.8619378092668486;0.0077301045336273799;0;0;0;0;0
1.8686114214864431;0.0070710678118654641;0;0;0;0;0
1.8752850337060376;0.0063439328416364446;0;0;0;0;0
1.8819586459256319;0.0055557023301960442;0;0;0;0;0
1.8886322581452264;0.0047139673682599715;0;0;0;0;0
1.8953058703648209;0.0038268343236508959;0;0;0;0;0
1.9019794825844154;0.0029028467725446244;0;0;0;0;0
1.9086530948040097;0.0019509032201612869;0;0;0;0;0
1.9153267070236042;0.00098017140329561365;0;0;0;0;0
1.9220003192431987;-2.4505315595678831e-17;0;0;0;0;0
1.928673931462793;-0.00098017140329559175;0;0;0;0;0
1.9353475436823875;-0.0019509032201612652;0;0;0;0;0
1.942021155901982;-0.0029028467725446374;0;0;0;0;0
1.9486947681215763;-0.0038268343236508751;0;0;0;0;0
1.9553683803411708;-0.0047139673682599836;0;0;0;0;0
1.9620419925607653;-0.0055557023301960259;0;0;0;0;0
1.9687156047803598;-0.0063439328416364559;0;0;0;0;0
1.9753892169999541;-0.0070710678118654736;0;0;0;0;0
1.9820628292195486;-0.007730104533627366;0;0;0;0;0
1.9887364414391431;-0.0083146961230254664;0;0;0;0;0
1.9954100536587374;-0.0088192126434835441;0;0;0;0;0
2.0020836658783319;-0.0092387953251128613;0;0;0;0;0
2.0087572780979261;-0.0095694033573220823;0;0;0;0;0
2.0154308903175209;-0.0098078528040323066;0;0;0;0;0
2.0221045025371152;-0.0099518472667219689;0;0;0;0;0
2.0287781147567094;-0.01;0;0;0;0;0
2.0354517269763042;-0.0099518472667219689;0;0;0;0;0
2.0421253391958984;-0.0098078528040323049;0;0;0;0;0
2.0487989514154932;-0.0095694033573220788;0;0;0;0;0
2.0554725636350875;-0.0092387953251128717;0;0;0;0;0
2.0621461758546817;-0.0088192126434835545;0;0;0;0;0
2.0688197880742765;-0.0083146961230254404;0;0;0;0;0
2.0754934002938707;-0.0077301045336273582;0;0;0;0;0
2.082167012513465;-0.0070710678118654901;0;0;0;0;0
2.0888406247330598;-0.0063439328416364463;0;0;0;0;0
2.095514236952654;-0.0055557023301960155;0;0;0;0;0
2.1021878491722483;-0.0047139673682600036;0;0;0;0;0
2.1088614613918431;-0.0038268343236508968;0;0;0;0;0
2.1155350736114373;-0.0029028467725446257;0;0;0;0;0
2.1222086858310316;-0.0019509032201613231;0;0;0;0;0
2.1288822980506263;-0.00098017140329557961;0;0;0;0;0
2.1355559102702206;-1.2246467991473533e-17;0;0;0;0;0
2.1422295224898149;0.00098017140329559045;0;0;0;0;0
2.1489031347094096;0.0019509032201612988;0;0;0;0;0
2.1555767469290039;0.0029028467725446022;0;0;0;0;0
2.1622503591485986;0.0038268343236509397;0;0;0;0;0
2.1689239713681929;0.0047139673682599819;0;0;0;0;0
2.1755975835877872;0.0055557023301959956;0;0;0;0;0
2.1822711958073819;0.006343932841636455;0;0;0;0;0
2.1889448080269762;0.0070710678118654979;0;0;0;0;0
2.1956184202465705;0.007730104533627366;0;0;0;0;0
2.2022920324661652;0.0083146961230254664;0;0;0;0;0
2.2089656446857595;0.0088192126434835441;0;0;0;0;0
2.2156392569053538;0.0092387953251128474;0;0;0;0;0
2.2223128691249485;0.0095694033573221048;0;0;0;0;0
2.2289864813445428;0.0098078528040323066;0;0;0;0;0
2.2356600935641371;0.0099518472667219655;0;0;0;0;0
2.2423337057837318;0.01;0;0;0;0;0
2.2490073180033261;0.0099518472667219724;0;0;0;0;0
2.2556809302229204;0.0098078528040323049;0;0;0;0;0
2.2623545424425151;0.0095694033573220788;0;0;0;0;0
2.2690281546621094;0.0092387953251128717;0;0;0;0;0
2.2757017668817041;0.0088192126434835389;0;0;0;0;0
2.2823753791012984;0.0083146961230254612;0;0;0;0;0
2.2890489913208927;0.0077301045336273591;0;0;0;0;0
2.2957226035404874;0.0070710678118654407;0;0;0;0;0
2.3023962157600817;0.0063439328416364472;0;0;0;0;0
2.309069827979676;0.0055557023301960459;0;0;0;0;0
2.3157434401992707;0.0047139673682599741;0;0;0;0;0
2.322417052418865;0.0038268343236509306;0;0;0;0;0
2.3290906646384593;0.0029028467725446265;0;0;0;0;0
2.335764276858054;0.0019509032201612544;0;0;0;0;0
2.3424378890776483;0.00098017140329561604;0;0;0;0;0
2.3491115012972426;4.899825157862589e-17;0;0;0;0;0
2.3557851135168373;-0.00098017140329558937;0;0;0;0;0
2.3624587257364316;-0.0019509032201612978;0;0;0;0;0
2.3691323379560258;-0.0029028467725446014;0;0;0;0;0
2.3758059501756206;-0.0038268343236509059;0;0;0;0;0
2.3824795623952149;-0.0047139673682599498;0;0;0;0;0
2.3891531746148096;-0.0055557023301960242;0;0;0;0;0
2.3958267868344039;-0.0063439328416364819;0;0;0;0;0
2.4025003990539981;-0.007071067811865471;0;0;0;0;0
2.4091740112735929;-0.0077301045336273869;0;0;0;0;0
2.4158476234931872;-0.0083146961230254456;0;0;0;0;0
2.4225212357127814;-0.0088192126434835268;0;0;0;0;0
2.4291948479323762;-0.0092387953251128873;0;0;0;0;0
2.4358684601519704;-0.0095694033573220927;0;0;0;0;0
2.4425420723715647;-0.0098078528040322997;0;0;0;0;0
2.4492156845911595;-0.0099518472667219689;0;0;0;0;0
2.4558892968107537;-0.01;0;0;0;0;0
2.462562909030348;-0.0099518472667219689;0;0;0;0;0
2.4692365212499428;-0.0098078528040322979;0;0;0;0;0
2.475910133469537;-0.0095694033573220909;0;0;0;0;0
2.4825837456891318;-0.0092387953251128578;0;0;0;0;0
2.489257357908726;-0.0088192126434835563;0;0;0;0;0
2.4959309701283203;-0.0083146961230254422;0;0;0;0;0
2.5026045823479151;-0.0077301045336273366;0;0;0;0;0
2.5092781945675093;-0.0070710678118654667;0;0;0;0;0
2.5159518067871036;-0.0063439328416364758;0;0;0;0;0
2.5226254190066983;-0.0055557023301960173;0;0;0;0;0
2.5292990312262926;-0.0047139673682600062;0;0;0;0;0
2.5359726434458869;-0.0038268343236508989;0;0;0;0;0
2.5426462556654816;-0.002902846772544594;0;0;0;0;0
2.5493198678850759;-0.0019509032201612906;0;0;0;0;0
2.5559934801046702;-0.00098017140329565268;0;0;0;0;0
2.5626670923242649;-1.4695761589768237e-17;0;0;0;0;0
2.5693407045438592;0.00098017140329562341;0;0;0;0;0
2.5760143167634535;0.0019509032201612618;0;0;0;0;0
2.5826879289830482;0.0029028467725446339;0;0;0;0;0
2.5893615412026425;0.0038268343236508716;0;0;0;0;0
2.5960351534222372;0.0047139673682599801;0;0;0;0;0
2.6027087656418315;0.005555702330196052;0;0;0;0;0
2.6093823778614258;0.0063439328416364524;0;0;0;0;0
2.6160559900810205;0.0070710678118654962;0;0;0;0;0
2.6227296023006148;0.0077301045336273634;0;0;0;0;0
2.6294032145202091;0.0083146961230254265;0;0;0;0;0
2.6360768267398038;0.0088192126434835771;0;0;0;0;0
2.6427504389593981;0.0092387953251128734;0;0;0;0;0
2.6494240511789924;0.0095694033573220823;0;0;0;0;0
2.6560976633985871;0.0098078528040323066;0;0;0;0;0
2.6627712756181814;0.0099518472667219655;0;0;0;0;0
2.6694448878377757;0.01;0;0;0;0;0
2.6761185000573704;0.0099518472667219655;0;0;0;0;0
2.6827921122769647;0.0098078528040323049;0;0;0;0;0
2.689465724496559;0.0095694033573221014;0;0;0;0;0
2.6961393367161537;0.0092387953251128717;0;0;0;0;0
2.702812948935748;0.0088192126434835406;0;0;0;0;0
2.7094865611553427;0.0083146961230254231;0;0;0;0;0
2.716160173374937;0.00773010453362736;0;0;0;0;0
2.7228337855945313;0.0070710678118654927;0;0;0;0;0
2.729507397814126;0.0063439328416364498;0;0;0;0;0
2.7361810100337203;0.0055557023301960485;0;0;0;0;0
2.7428546222533146;0.0047139673682599758;0;0;0;0;0
2.7495282344729093;0.0038268343236508673;0;0;0;0;0
2.7562018466925036;0.0029028467725446296;0;0;0;0;0
2.7628754589120978;0.0019509032201613266;0;0;0;0;0
2.7695490711316926;0.00098017140329561864;0;0;0;0;0
2.7762226833512869;-1.9606728399089417e-17;0;0;0;0;0
2.7828962955708811;-0.00098017140329558698;0;0;0;0;0
2.7895699077904759;-0.0019509032201612954;0;0;0;0;0
2.7962435200100701;-0.0029028467725445988;0;0;0;0;0
2.8029171322296644;-0.0038268343236508378;0;0;0;0;0
2.8095907444492592;-0.0047139673682600105;0;0;0;0;0
2.8162643566688534;-0.0055557023301960216;0;0;0;0;0
2.8229379688884482;-0.0063439328416364793;0;0;0;0;0
2.8296115811080425;-0.0070710678118654701;0;0;0;0;0
2.8362851933276367;-0.00773010453362734;0;0;0;0;0
2.8429588055472315;-0.0083146961230254855;0;0;0;0;0
2.8496324177668257;-0.008819212643483558;0;0;0;0;0
2.85630602998642;-0.0092387953251128595;0;0;0;0;0
2.8629796422060148;-0.0095694033573220909;0;0;0;0;0
2.869653254425609;-0.0098078528040322997;0;0;0;0;0
2.8763268666452033;-0.0099518472667219689;0;0;0;0;0
2.883000478864798;-0.01;0;0;0;0;0
2.8896740910843923;-0.0099518472667219689;0;0;0;0;0
2.8963477033039866;-0.0098078528040323118;0;0;0;0;0
2.9030213155235813;-0.0095694033573220909;0;0;0;0;0
2.9096949277431756;-0.0092387953251128595;0;0;0;0;0
2.9163685399627699;-0.008819212643483558;0;0;0;0;0
2.9230421521823646;-0.0083146961230254439;0;0;0;0;0
2.9297157644019589;-0.0077301045336273834;0;0;0;0;0
2.9363893766215536;-0.0070710678118654684;0;0;0;0;0
2.9430629888411479;-0.0063439328416364776;0;0;0;0;0
2.9497366010607422;-0.0055557023301960199;0;0;0;0;0
2.9564102132803369;-0.0047139673682599454;0;0;0;0;0
2.9630838254999312;-0.0038268343236509011;0;0;0;0;0
2.9697574377195255;-0.0029028467725446643;0;0;0;0;0
2.9764310499391202;-0.0019509032201612928;0;0;0;0;0
2.9831046621587145;-0.00098017140329558438;0;0;0;0;0
2.9897782743783088;-1.7145055188062944e-17;0;0;0;0;0
2.9964518865979035;0.00098017140329562102;0;0;0;0;0
3.0031254988174978;0.0019509032201612592;0;0;0;0;0
3.0097991110370921;0.0029028467725445632;0;0;0;0;0
3.0164727232566868;0.0038268343236509349;0;0;0;0;0
3.0231463354762811;0.0047139673682599784;0;0;0;0;0
3.0298199476958754;0.0055557023301959904;0;0;0;0;0
3.0364935599154701;0.0063439328416364507;0;0;0;0;0
3.0431671721350644;0.0070710678118654433;0;0;0;0;0
3.0498407843546591;0.0077301045336274068;0;0;0;0;0
3.0565143965742534;0.008314696123025463;0;0;0;0;0
3.0631880087938477;0.0088192126434835424;0;0;0;0;0
3.0698616210134424;0.0092387953251128734;0;0;0;0;0
3.0765352332330367;0.0095694033573220823;0;0;0;0;0
3.083208845452631;0.0098078528040323049;0;0;0;0;0
3.0898824576722257;0.0099518472667219724;0;0;0;0;0
3.09655606989182;0.01;0;0;0;0;0
3.1032296821114143;0.0099518472667219724;0;0;0;0;0
3.109903294331009;0.0098078528040323049;0;0;0;0;0
3.1165769065506033;0.0095694033573220823;0;0;0;0;0
3.1232505187701975;0.0092387953251128734;0;0;0;0;0
3.1299241309897923;0.0088192126434835424;0;0;0;0;0
3.1365977432093866;0.008314696123025463;0;0;0;0;0
3.1432713554289813;0.0077301045336273626;0;0;0;0;0
3.1499449676485756;0.0070710678118654944;0;0;0;0;0
3.1566185798681698;0.0063439328416364507;0;0;0;0;0
3.1632921920877646;0.0055557023301959904;0;0;0;0;0
3.1699658043073589;0.0047139673682599784;0;0;0;0;0
3.1766394165269531;0.0038268343236509349;0;0;0;0;0
3.1833130287465479;0.0029028467725446317;0;0;0;0;0
3.1899866409661422;0.0019509032201612592;0;0;0;0;0
3.1966602531857364;0.00098017140329562081;0;0;0;0;0
3.2033338654053312;-1.7157434800794713e-17;0;0;0;0;0
3.2100074776249254;-0.00098017140329558438;0;0;0;0;0
3.2166810898445197;-0.0019509032201612232;0;0;0;0;0
3.2233547020641145;-0.0029028467725446643;0;0;0;0;0
3.2300283142837087;-0.0038268343236509011;0;0;0;0;0
3.236701926503303;-0.0047139673682599454;0;0;0;0;0
3.2433755387228977;-0.0055557023301960199;0;0;0;0;0
3.250049150942492;-0.0063439328416364229;0;0;0;0;0
3.2567227631620868;-0.0070710678118655196;0;0;0;0;0
3.263396375381681;-0.0077301045336273834;0;0;0;0;0
3.2700699876012753;-0.0083146961230254439;0;0;0;0;0
3.27674359982087;-0.008819212643483558;0;0;0;0;0
3.2834172120404643;-0.0092387953251128595;0;0;0;0;0
3.2900908242600586;-0.0095694033573220909;0;0;0;0;0
3.2967644364796533;-0.0098078528040323118;0;0;0;0;0
3.3034380486992476;-0.0099518472667219689;0;0;0;0;0
3.3101116609188419;-0.01;0;0;0;0;0
3.3167852731384366;-0.0099518472667219689;0;0;0;0;0
3.3234588853580309;-0.0098078528040322997;0;0;0;0;0
3.3301324975776252;-0.0095694033573220909;0;0;0;0;0
3.3368061097972199;-0.0092387953251128595;0;0;0;0;0
3.3434797220168142;-0.008819212643483558;0;0;0;0;0
3.3501533342364085;-0.0083146961230254855;0;0;0;0;0
3.3568269464560032;-0.00773010453362734;0;0;0;0;0
3.3635005586755975;-0.0070710678118654701;0;0;0;0;0
3.3701741708951922;-0.0063439328416364247;0;0;0;0;0
3.3768477831147865;-0.0055557023301960216;0;0;0;0;0
3.3835213953343808;-0.0047139673682600105;0;0;0;0;0
3.3901950075539755;-0.0038268343236509033;0;0;0;0;0
3.3968686197735698;-0.0029028467725445988;0;0;0;0;0
3.4035422319931641;-0.0019509032201612954;0;0;0;0;0
3.4102158442127588;-0.00098017140329558676;0;0;0;0;0
3.4168894564323531;-1.9594348786357651e-17;0;0;0;0;0
3.4235630686519474;0.00098017140329554773;0;0;0;0;0
3.4302366808715421;0.0019509032201613266;0;0;0;0;0
3.4369102930911364;0.0029028467725446296;0;0;0;0;0
3.4435839053107307;0.0038268343236508673;0;0;0;0;0
3.4502575175303254;0.0047139673682599758;0;0;0;0;0
3.4569311297499197;0.0055557023301959895;0;0;0;0;0
3.463604741969514;0.0063439328416364498;0;0;0;0;0
3.4702783541891087;0.0070710678118654927;0;0;0;0;0
3.476951966408703;0.00773010453362736;0;0;0;0;0
3.4836255786282977;0.008314696123025463;0;0;0;0;0
3.490299190847892;0.0088192126434835406;0;0;0;0;0
3.4969728030674863;0.0092387953251128717;0;0;0;0;0
3.503646415287081;0.0095694033573221014;0;0;0;0;0
3.5103200275066753;0.0098078528040323049;0;0;0;0;0
3.5169936397262695;0.0099518472667219655;0;0;0;0;0
3.5236672519458643;0.01;0;0;0;0;0
3.5303408641654586;0.0099518472667219655;0;0;0;0;0
3.5370144763850528;0.0098078528040323066;0;0;0;0;0
3.5436880886046476;0.0095694033573220823;0;0;0;0;0
3.5503617008242419;0.0092387953251128734;0;0;0;0;0
3.5570353130438361;0.0088192126434835771;0;0;0;0;0
3.5637089252634309;0.0083146961230254265;0;0;0;0;0
3.5703825374830251;0.0077301045336273634;0;0;0;0;0
3.5770561497026194;0.0070710678118654962;0;0;0;0;0
3.5837297619222142;0.0063439328416364524;0;0;0;0;0
3.5904033741418084;0.005555702330196052;0;0;0;0;0
3.5970769863614032;0.0047139673682599801;0;0;0;0;0
3.6037505985809974;0.0038268343236508716;0;0;0;0;0
3.6104242108005917;0.0029028467725446339;0;0;0;0;0
3.6170978230201865;0.0019509032201612618;0;0;0;0;0
3.6237714352397807;0.00098017140329562341;0;0;0;0;0
3.630445047459375;5.6346132373510012e-17;0;0;0;0;0
3.6371186596789697;-0.00098017140329565268;0;0;0;0;0
3.643792271898564;-0.0019509032201612906;0;0;0;0;0
3.6504658841181583;-0.002902846772544594;0;0;0;0;0
3.657139496337753;-0.0038268343236508989;0;0;0;0;0
3.6638131085573473;-0.0047139673682599428;0;0;0;0;0
3.6704867207769416;-0.0055557023301960173;0;0;0;0;0
3.6771603329965363;-0.0063439328416364758;0;0;0;0;0
3.6838339452161306;-0.0070710678118654667;0;0;0;0;0
3.6905075574357249;-0.0077301045336273366;0;0;0;0;0
3.6971811696553196;-0.0083146961230254422;0;0;0;0;0
3.7038547818749139;-0.0088192126434835563;0;0;0;0;0
3.7105283940945086;-0.0092387953251128856;0;0;0;0;0
3.7172020063141029;-0.0095694033573220909;0;0;0;0;0
3.7238756185336972;-0.0098078528040322979;0;0;0;0;0
3.7305492307532919;-0.0099518472667219689;0;0;0;0;0
3.7372228429728862;-0.01;0;0;0;0;0
3.7438964551924805;-0.0099518472667219689;0;0;0;0;0
3.7505700674120752;-0.0098078528040322997;0;0;0;0;0
3.7572436796316695;-0.0095694033573220927;0;0;0;0;0
3.7639172918512638;-0.0092387953251128873;0;0;0;0;0
3.7705909040708585;-0.0088192126434835268;0;0;0;0;0
3.7772645162904528;-0.0083146961230254456;0;0;0;0;0
3.7839381285100471;-0.0077301045336273869;0;0;0;0;0
3.7906117407296418;-0.007071067811865471;0;0;0;0;0
3.7972853529492361;-0.0063439328416364819;0;0;0;0;0
3.8039589651688308;-0.0055557023301960242;0;0;0;0;0
3.8106325773884251;-0.0047139673682599498;0;0;0;0;0
3.8173061896080194;-0.0038268343236509059;0;0;0;0;0
3.8239798018276141;-0.0029028467725446014;0;0;0;0;0
3.8306534140472084;-0.0019509032201612978;0;0;0;0;0
3.8373270262668027;-0.00098017140329558937;0;0;0;0;0
3.8440006384863974;4.9010631191357662e-17;0;0;0;0;0
3.8506742507059917;0.00098017140329561604;0;0;0;0;0
3.857347862925586;0.0019509032201612544;0;0;0;0;0
3.8640214751451807;0.0029028467725446265;0;0;0;0;0
3.870695087364775;0.0038268343236508651;0;0;0;0;0
3.8773686995843692;0.0047139673682599741;0;0;0;0;0
3.884042311803964;0.0055557023301960459;0;0;0;0;0
3.8907159240235583;0.0063439328416364472;0;0;0;0;0
3.8973895362431525;0.0070710678118654407;0;0;0;0;0
3.9040631484627473;0.0077301045336273591;0;0;0;0;0
3.9107367606823416;0.0083146961230254612;0;0;0;0;0
3.9174103729019363;0.0088192126434835736;0;0;0;0;0
3.9240839851215306;0.0092387953251128717;0;0;0;0;0
3.9307575973411248;0.0095694033573220788;0;0;0;0;0
3.9374312095607196;0.0098078528040323049;0;0;0;0;0
3.9441048217803139;0.0099518472667219724;0;0;0;0;0
3.9507784339999081;0.01;0;0;0;0;0
3.9574520462195029;0.0099518472667219655;0;0;0;0;0
3.9641256584390971;0.0098078528040323066;0;0;0;0;0
3.9707992706586914;0.0095694033573221048;0;0;0;0;0
3.9774728828782862;0.0092387953251128474;0;0;0;0;0
3.9841464950978804;0.0088192126434835441;0;0;0;0;0
3.9908201073174747;0.0083146961230254664;0;0;0;0;0
3.9974937195370694;0.007730104533627366;0;0;0;0;0
4.0041673317566637;0.0070710678118654979;0;0;0;0;0
4.010840943976258;0.006343932841636455;0;0;0;0;0
4.0175145561958523;0.0055557023301960537;0;0;0;0;0
4.0241881684154475;0.0047139673682599194;0;0;0;0;0
4.0308617806350417;0.0038268343236508742;0;0;0;0;0
4.037535392854636;0.0029028467725446361;0;0;0;0;0
4.0442090050742303;0.0019509032201612641;0;0;0;0;0
4.0508826172938246;0.00098017140329562579;0;0;0;0;0
4.0575562295134189;5.8795425971804725e-17;0;0;0;0;0
4.064229841733014;-0.00098017140329565008;0;0;0;0;0
4.0709034539526083;-0.001950903220161288;0;0;0;0;0
4.0775770661722026;-0.0029028467725445918;0;0;0;0;0
4.0842506783917969;-0.0038268343236508968;0;0;0;0;0
4.0909242906113912;-0.0047139673682599411;0;0;0;0;0
4.0975979028309863;-0.0055557023301960754;0;0;0;0;0
4.1042715150505806;-0.0063439328416364741;0;0;0;0;0
4.1109451272701749;-0.0070710678118654649;0;0;0;0;0
4.1176187394897692;-0.0077301045336273808;0;0;0;0;0
4.1242923517093635;-0.0083146961230254404;0;0;0;0;0
4.1309659639289578;-0.0088192126434835216;0;0;0;0;0
4.1376395761485529;-0.0092387953251128838;0;0;0;0;0
4.1443131883681472;-0.0095694033573220892;0;0;0;0;0
4.1509868005877415;-0.0098078528040323118;0;0;0;0;0
4.1576604128073358;-0.0099518472667219689;0;0;0;0;0
4.1643340250269301;-0.01;0;0;0;0;0
4.1710076372465243;-0.0099518472667219776;0;0;0;0;0
4.1776812494661195;-0.0098078528040322997;0;0;0;0;0
4.1843548616857138;-0.0095694033573220736;0;0;0;0;0
4.1910284739053081;-0.0092387953251128613;0;0;0;0;0
4.1977020861249024;-0.0088192126434835615;0;0;0;0;0
4.2043756983444966;-0.0083146961230254873;0;0;0;0;0
4.2110493105640918;-0.0077301045336273435;0;0;0;0;0
4.2177229227836861;-0.0070710678118654736;0;0;0;0;0
4.2243965350032804;-0.0063439328416364281;0;0;0;0;0
4.2310701472228747;-0.0055557023301960259;0;0;0;0;0
4.2377437594424689;-0.0047139673682600148;0;0;0;0;0
4.2444173716620632;-0.0038268343236509735;0;0;0;0;0
4.2510909838816584;-0.0029028467725446035;0;0;0;0;0
4.2577645961012527;-0.0019509032201612303;0;0;0;0;0
4.264438208320847;-0.00098017140329559175;0;0;0;0;0
4.2711118205404413;-2.4492935982947065e-17;0;0;0;0;0
4.2777854327600355;0.00098017140329554296;0;0;0;0;0
4.2844590449796298;0.001950903220161252;0;0;0;0;0
4.291132657199225;0.0029028467725446929;0;0;0;0;0
4.2978062694188193;0.0038268343236509284;0;0;0;0;0
4.3044798816384136;0.0047139673682599715;0;0;0;0;0
4.3111534938580078;0.0055557023301959852;0;0;0;0;0
4.3178271060776021;0.0063439328416363908;0;0;0;0;0
4.3245007182971973;0.0070710678118655395;0;0;0;0;0
4.3311743305167916;0.0077301045336274025;0;0;0;0;0
4.3378479427363859;0.0083146961230254595;0;0;0;0;0
4.3445215549559801;0.0088192126434835389;0;0;0;0;0
4.3511951671755744;0.0092387953251128439;0;0;0;0;0
4.3578687793951687;0.009569403357322058;0;0;0;0;0
4.3645423916147639;0.0098078528040323049;0;0;0;0;0
4.3712160038343582;0.0099518472667219655;0;0;0;0;0
4.3778896160539524;0.01;0;0;0;0;0
4.3845632282735467;0.0099518472667219655;0;0;0;0;0
4.391236840493141;0.0098078528040323083;0;0;0;0;0
4.3979104527127353;0.0095694033573221048;0;0;0;0;0
4.4045840649323305;0.0092387953251128491;0;0;0;0;0
4.4112576771519247;0.0088192126434835458;0;0;0;0;0
4.417931289371519;0.0083146961230254682;0;0;0;0;0
4.4246049015911133;0.007730104533627412;0;0;0;0;0
4.4312785138107076;0.0070710678118655499;0;0;0;0;0
4.4379521260303028;0.0063439328416364576;0;0;0;0;0
4.444625738249897;0.0055557023301959383;0;0;0;0;0
4.4512993504694913;0.0047139673682599212;0;0;0;0;0
4.4579729626890856;0.0038268343236508764;0;0;0;0;0
4.4646465749086799;0.0029028467725446391;0;0;0;0;0
4.4713201871282742;0.0019509032201613361;0;0;0;0;0
4.4779937993478693;0.00098017140329555771;0;0;0;0;0
4.4846674115674636;-9.8095540059105926e-18;0;0;0;0;0
4.4913410237870579;-0.00098017140329557701;0;0;0;0;0
4.4980146360066522;-0.001950903220161216;0;0;0;0;0
4.5046882482262465;-0.0029028467725445211;0;0;0;0;0
4.5113618604458408;-0.0038268343236508946;0;0;0;0;0
4.5180354726654359;-0.0047139673682600643;0;0;0;0;0
4.5247090848850302;-0.0055557023301960728;0;0;0;0;0
4.5313826971046245;-0.0063439328416364715;0;0;0;0;0
4.5380563093242188;-0.0070710678118654641;0;0;0;0;0
4.5447299215438131;-0.0077301045336273348;0;0;0;0;0
4.5514035337634082;-0.0083146961230254786;0;0;0;0;0
4.5580771459830025;-0.0088192126434835545;0;0;0;0;0
4.5647507582025968;-0.0092387953251128561;0;0;0;0;0
4.5714243704221911;-0.0095694033573220684;0;0;0;0;0
4.5780979826417854;-0.0098078528040323118;0;0;0;0;0
4.5847715948613796;-0.0099518472667219689;0;0;0;0;0
4.5914452070809748;-0.01;0;0;0;0;0
4.5981188193005691;-0.009951847266721962;0;0;0;0;0
4.6047924315201634;-0.0098078528040323014;0;0;0;0;0
4.6114660437397577;-0.0095694033573220944;0;0;0;0;0
4.6181396559593519;-0.009238795325112889;0;0;0;0;0
4.6248132681789462;-0.0088192126434835962;0;0;0;0;0
4.6314868803985414;-0.0083146961230254491;0;0;0;0;0
4.6381604926181357;-0.0077301045336273903;0;0;0;0;0
4.64483410483773;-0.0070710678118655257;0;0;0;0;0
4.6515077170573242;-0.0063439328416364307;0;0;0;0;0
4.6581813292769185;-0.0055557023301960277;0;0;0;0;0
4.6648549414965137;-0.0047139673682598917;0;0;0;0;0
4.671528553716108;-0.0038268343236508447;0;0;0;0;0
4.6782021659357023;-0.0029028467725446057;0;0;0;0;0
4.6848757781552965;-0.0019509032201613025;0;0;0;0;0
4.6915493903748908;-0.00098017140329566483;0;0;0;0;0
4.6982230025944851;-9.799650315725178e-17;0;0;0;0;0
4.7048966148140803;0.00098017140329561127;0;0;0;0;0
4.7115702270336746;0.0019509032201612498;0;0;0;0;0
4.7182438392532688;0.0029028467725446907;0;0;0;0;0
4.7249174514728631;0.0038268343236509262;0;0;0;0;0
4.7315910636924574;0.0047139673682599697;0;0;0;0;0
4.7382646759120517;0.0055557023301959834;0;0;0;0;0
4.7449382881316469;0.0063439328416364984;0;0;0;0;0
4.7516119003512411;0.0070710678118654866;0;0;0;0;0
4.7582855125708354;0.0077301045336273556;0;0;0;0;0
4.7649591247904297;0.0083146961230254196;0;0;0;0;0
4.771632737010024;0.0088192126434835042;0;0;0;0;0
4.7783063492296192;0.0092387953251128682;0;0;0;0;0
4.7849799614492134;0.0095694033573220788;0;0;0;0;0
4.7916535736688077;0.009807852804032317;0;0;0;0;0
4.798327185888402;0.0099518472667219724;0;0;0;0;0
4.8050007981079963;0.01;0;0;0;0;0
4.8116744103275906;0.0099518472667219741;0;0;0;0;0
4.8183480225471857;0.0098078528040322945;0;0;0;0;0
4.82502163476678;0.009569403357322084;0;0;0;0;0
4.8316952469863743;0.0092387953251128769;0;0;0;0;0
4.8383688592059686;0.0088192126434835788;0;0;0;0;0
4.8450424714255629;0.0083146961230255098;0;0;0;0;0
4.8517160836451581;0.0077301045336273678;0;0;0;0;0
4.8583896958647523;0.0070710678118654008;0;0;0;0;0
4.8650633080843466;0.0063439328416364038;0;0;0;0;0
4.8717369203039409;0.0055557023301959999;0;0;0;0;0
4.8784105325235352;0.0047139673682599862;0;0;0;0;0
4.8850841447431295;0.003826834323650944;0;0;0;0;0
4.8917577569627246;0.0029028467725445727;0;0;0;0;0
4.8984313691823189;0.0019509032201612689;0;0;0;0;0
4.9051049814019132;0.00098017140329563078;0;0;0;0;0
4.9117785936215075;6.3694013168394139e-17;0;0;0;0;0
4.9184522058411018;-0.00098017140329550393;0;0;0;0;0
4.925125818060696;-0.0019509032201612834;0;0;0;0;0
4.9317994302802912;-0.0029028467725447232;0;0;0;0;0
4.9384730424998855;-0.0038268343236509579;0;0;0;0;0
4.9451466547194798;-0.0047139673682599992;0;0;0;0;0
4.9518202669390741;-0.0055557023301960121;0;0;0;0;0
4.9584938791586683;-0.0063439328416364151;0;0;0;0;0
4.9651674913782635;-0.0070710678118655118;0;0;0;0;0
4.9718411035978578;-0.0077301045336273782;0;0;0;0;0
4.9785147158174521;-0.0083146961230254387;0;0;0;0;0
4.9851883280370464;-0.0088192126434835198;0;0;0;0;0
4.9918619402566407;-0.0092387953251128821;0;0;0;0;0
4.9985355524762349;-0.0095694033573220892;0;0;0;0;0
5.0052091646958301;-0.0098078528040323239;0;0;0;0;0
5.0118827769154244;-0.0099518472667219759;0;0;0;0;0
5.0185563891350187;-0.01;0;0;0;0;0
5.025230001354613;-0.0099518472667219707;0;0;0;0;0
5.0319036135742072;-0.0098078528040323153;0;0;0;0;0
5.0385772257938015;-0.0095694033573221152;0;0;0;0;0
5.0452508380133967;-0.009238795325112863;0;0;0;0;0
5.051924450232991;-0.0088192126434835632;0;0;0;0;0
5.0585980624525853;-0.008314696123025489;0;0;0;0;0
5.0652716746721795;-0.007730104533627347;0;0;0;0;0
5.0719452868917738;-0.0070710678118654771;0;0;0;0;0
5.078618899111369;-0.006343932841636377;0;0;0;0;0
5.0852925113309633;-0.0055557023301959704;0;0;0;0;0
5.0919661235505576;-0.0047139673682599567;0;0;0;0;0
5.0986397357701518;-0.0038268343236509124;0;0;0;0;0
5.1053133479897461;-0.002902846772544676;0;0;0;0;0
5.1119869602093404;-0.0019509032201613747;0;0;0;0;0
5.1186605724289356;-0.00098017140329559652;0;0;0;0;0
5.1253341846485299;-2.9391523179536474e-17;0;0;0;0;0
5.1320077968681241;0.00098017140329567957;0;0;0;0;0
5.1386814090877184;0.0019509032201613168;0;0;0;0;0
5.1453550213073127;0.00290284677254462;0;0;0;0;0
5.152028633526907;0.0038268343236508577;0;0;0;0;0
5.1587022457465022;0.0047139673682600296;0;0;0;0;0
5.1653758579660964;0.0055557023301960398;0;0;0;0;0
5.1720494701856907;0.006343932841636442;0;0;0;0;0
5.178723082405285;0.0070710678118654363;0;0;0;0;0
5.1853966946248793;0.0077301045336273088;0;0;0;0;0
5.1920703068444745;0.0083146961230254578;0;0;0;0;0
5.1987439190640687;0.0088192126434835354;0;0;0;0;0
5.205417531283663;0.009238795325112896;0;0;0;0;0
5.2120911435032573;0.0095694033573220979;0;0;0;0;0
5.2187647557228516;0.0098078528040323031;0;0;0;0;0
5.2254383679424459;0.0099518472667219655;0;0;0;0;0
5.232111980162041;0.01;0;0;0;0;0
5.2387855923816353;0.0099518472667219672;0;0;0;0;0
5.2454592046012296;0.0098078528040323083;0;0;0;0;0
5.2521328168208239;0.0095694033573221048;0;0;0;0;0
5.2588064290404182;0.0092387953251129046;0;0;0;0;0
5.2654800412600125;0.0088192126434835476;0;0;0;0;0
5.2721536534796076;0.0083146961230253918;0;0;0;0;0
5.2788272656992019;0.0077301045336273244;0;0;0;0;0
5.2855008779187962;0.0070710678118654528;0;0;0;0;0
5.2921744901383905;0.0063439328416364602;0;0;0;0;0
5.2988481023579848;0.0055557023301960606;0;0;0;0;0
5.3055217145775799;0.0047139673682599264;0;0;0;0;0
5.3121953267971742;0.0038268343236508807;0;0;0;0;0
5.3188689390167685;0.0029028467725446434;0;0;0;0;0
5.3255425512363628;0.0019509032201613411;0;0;0;0;0
5.3322161634559571;0.00098017140329570386;0;0;0;0;0
5.3388897756755513;-4.9109668093211799e-18;0;0;0;0;0
5.3455633878951465;-0.00098017140329571362;0;0;0;0;0
5.3522370001147408;-0.0019509032201613504;0;0;0;0;0
5.3589106123343351;-0.002902846772544653;0;0;0;0;0
5.3655842245539294;-0.0038268343236508903;0;0;0;0;0
5.3722578367735236;-0.004713967368259935;0;0;0;0;0
5.3789314489931179;-0.0055557023301959505;0;0;0;0;0
5.3856050612127131;-0.006343932841636468;0;0;0;0;0
5.3922786734323074;-0.0070710678118654606;0;0;0;0;0
5.3989522856519017;-0.0077301045336273314;0;0;0;0;0
5.4056258978714959;-0.0083146961230254751;0;0;0;0;0
5.4122995100910902;-0.0088192126434835511;0;0;0;0;0
5.4189731223106854;-0.0092387953251129081;0;0;0;0;0
5.4256467345302797;-0.0095694033573221083;0;0;0;0;0
5.432320346749874;-0.0098078528040323101;0;0;0;0;0
5.4389939589694682;-0.0099518472667219689;0;0;0;0;0
5.4456675711890625;-0.01;0;0;0;0;0
5.4523411834086568;-0.0099518472667219776;0;0;0;0;0
5.459014795628252;-0.0098078528040323014;0;0;0;0;0
5.4656884078478463;-0.0095694033573220962;0;0;0;0;0
5.4723620200674405;-0.0092387953251128925;0;0;0;0;0
5.4790356322870348;-0.008819212643483532;0;0;0;0;0
5.4857092445066291;-0.0083146961230254508;0;0;0;0;0
5.4923828567262234;-0.0077301045336273938;0;0;0;0;0
5.4990564689458186;-0.0070710678118654285;0;0;0;0;0
5.5057300811654128;-0.0063439328416364342;0;0;0;0;0
5.5124036933850071;-0.005555702330196032;0;0;0;0;0
5.5190773056046014;-0.0047139673682600209;0;0;0;0;0
5.5257509178241957;-0.0038268343236509805;0;0;0;0;0
5.5324245300437909;-0.0029028467725446105;0;0;0;0;0
5.5390981422633851;-0.0019509032201613073;0;0;0;0;0
5.5457717544829794;-0.00098017140329552843;0;0;0;0;0
5.5524453667025737;3.9213456798178833e-17;0;0;0;0;0
5.559118978922168;0.00098017140329560628;0;0;0;0;0
5.5657925911417623;0.0019509032201612448;0;0;0;0;0
5.5724662033613575;0.0029028467725446855;0;0;0;0;0
5.5791398155809517;0.0038268343236509219;0;0;0;0;0
5.585813427800546;0.0047139673682599645;0;0;0;0;0
5.5924870400201403;0.0055557023301959782;0;0;0;0;0
5.5991606522397346;0.0063439328416363848;0;0;0;0;0
5.6058342644593289;0.0070710678118653834;0;0;0;0;0
5.612507876678924;0.0077301045336273522;0;0;0;0;0
5.6191814888985183;0.0083146961230254942;0;0;0;0;0
5.6258551011181126;0.0088192126434835684;0;0;0;0;0
5.6325287133377069;0.0092387953251128682;0;0;0;0;0
5.6392023255573012;0.0095694033573220771;0;0;0;0;0
5.6458759377768963;0.009807852804032317;0;0;0;0;0
5.6525495499964906;0.0099518472667219724;0;0;0;0;0
5.6592231622160849;0.01;0;0;0;0;0
5.6658967744356792;0.0099518472667219741;0;0;0;0;0
5.6725703866552735;0.0098078528040323222;0;0;0;0;0
5.6792439988748677;0.0095694033573220857;0;0;0;0;0
5.6859176110944629;0.0092387953251128248;0;0;0;0;0
5.6925912233140572;0.0088192126434835146;0;0;0;0;0
5.6992648355336515;0.0083146961230254317;0;0;0;0;0
5.7059384477532458;0.0077301045336273713;0;0;0;0;0
5.7126120599728401;0.0070710678118655048;0;0;0;0;0
5.7192856721924343;0.0063439328416365175;0;0;0;0;0
5.7259592844120295;0.0055557023301960034;0;0;0;0;0
5.7326328966316238;0.0047139673682599905;0;0;0;0;0
5.7393065088512181;0.0038268343236509488;0;0;0;0;0
5.7459801210708124;0.0029028467725447137;0;0;0;0;0
5.7526537332904066;0.0019509032201612737;0;0;0;0;0
5.7593273455100018;0.00098017140329549417;0;0;0;0;0
5.7660009577295961;-7.3515946787036487e-17;0;0;0;0;0
5.7726745699491904;-0.00098017140329564054;0;0;0;0;0
5.7793481821687847;-0.0019509032201612787;0;0;0;0;0
5.7860217943883789;-0.0029028467725445823;0;0;0;0;0
5.7926954066079732;-0.0038268343236508217;0;0;0;0;0
5.7993690188275684;-0.0047139673682599957;0;0;0;0;0
5.8060426310471627;-0.0055557023301960077;0;0;0;0;0
5.812716243266757;-0.0063439328416364116;0;0;0;0;0
5.8193898554863512;-0.0070710678118655083;0;0;0;0;0
5.8260634677059455;-0.0077301045336273747;0;0;0;0;0
5.8327370799255398;-0.0083146961230254352;0;0;0;0;0
5.839410692145135;-0.008819212643483584;0;0;0;0;0
5.8460843043647293;-0.0092387953251128804;0;0;0;0;0
5.8527579165843235;-0.0095694033573220875;0;0;0;0;0
5.8594315288039178;-0.0098078528040322962;0;0;0;0;0
5.8661051410235121;-0.0099518472667219603;0;0;0;0;0
5.8727787532431073;-0.01;0;0;0;0;0
5.8794523654627016;-0.0099518472667219707;0;0;0;0;0
5.8861259776822958;-0.0098078528040323153;0;0;0;0;0
5.8927995899018901;-0.0095694033573220771;0;0;0;0;0
5.8994732021214844;-0.0092387953251128647;0;0;0;0;0
5.9061468143410787;-0.0088192126434835667;0;0;0;0;0
5.9128204265606739;-0.0083146961230254144;0;0;0;0;0
5.9194940387802681;-0.0077301045336273504;0;0;0;0;0
5.9261676509998624;-0.0070710678118654805;0;0;0;0;0
5.9328412632194567;-0.0063439328416364906;0;0;0;0;0
5.939514875439051;-0.0055557023301960927;0;0;0;0;0
5.9461884876586453;-0.004713967368260086;0;0;0;0;0
5.9528620998782404;-0.0038268343236509167;0;0;0;0;0
5.9595357120978347;-0.002902846772544545;0;0;0;0;0
5.966209324317429;-0.0019509032201612401;0;0;0;0;0
5.9728829365370233;-0.00098017140329560151;0;0;0;0;0
5.9795565487566176;-3.4290110376125888e-17;0;0;0;0;0
5.9862301609762127;0.00098017140329567458;0;0;0;0;0
5.992903773195807;0.0019509032201613123;0;0;0;0;0
5.9995773854154013;0.0029028467725446152;0;0;0;0;0
6.0062509976349956;0.0038268343236508534;0;0;0;0;0
6.0129246098545899;0.0047139673682599003;0;0;0;0;0
6.0195982220741842;0.0055557023301959175;0;0;0;0;0
6.0262718342937793;0.006343932841636547;0;0;0;0;0
6.0329454465133736;0.0070710678118655326;0;0;0;0;0
6.0396190587329679;0.0077301045336273964;0;0;0;0;0
6.0462926709525622;0.0083146961230254543;0;0;0;0;0
6.0529662831721565;0.0088192126434835337;0;0;0;0;0
6.0596398953917507;0.0092387953251128387;0;0;0;0;0
6.0663135076113459;0.0095694033573220979;0;0;0;0;0
6.0729871198309402;0.0098078528040323031;0;0;0;0;0
6.0796607320505345;0.0099518472667219637;0;0;0;0;0
6.0863343442701288;0.01;0;0;0;0;0
6.093007956489723;0.0099518472667219672;0;0;0;0;0
6.0996815687093182;0.0098078528040322806;0;0;0;0;0
6.1063551809289125;0.0095694033573220667;0;0;0;0;0
6.1130287931485068;0.0092387953251128526;0;0;0;0;0
6.1197024053681011;0.0088192126434835493;0;0;0;0;0
6.1263760175876953;0.0083146961230254734;0;0;0;0;0
6.1330496298072896;0.0077301045336274181;0;0;0;0;0
6.1397232420268848;0.0070710678118654563;0;0;0;0;0
6.1463968542464791;0.0063439328416364637;0;0;0;0;0
6.1530704664660734;0.0055557023301960641;0;0;0;0;0
6.1597440786856676;0.0047139673682600556;0;0;0;0;0
6.1664176909052619;0.0038268343236508851;0;0;0;0;0
6.1730913031248571;0.0029028467725445116;0;0;0;0;0
6.1797649153444514;0.0019509032201612065;0;0;0;0;0
6.1864385275640457;0.00098017140329556725;0;0;0;0;0
6.1931121397836399;-1.2379612731767154e-20;0;0;0;0;0
6.1997857520032342;-0.00098017140329556725;0;0;0;0;0
6.2064593642228285;-0.0019509032201612065;0;0;0;0;0
6.2131329764424237;-0.0029028467725446482;0;0;0;0;0
6.219806588662018;-0.0038268343236508851;0;0;0;0;0
6.2264802008816122;-0.0047139673682599307;0;0;0;0;0
6.2331538131012065;-0.005555702330196065;0;0;0;0;0
6.2398274253208008;-0.0063439328416364637;0;0;0;0;0
6.2465010375403951;-0.0070710678118654563;0;0;0;0;0
6.2531746497599903;-0.0077301045336274181;0;0;0;0;0
6.2598482619795845;-0.0083146961230254734;0;0;0;0;0
6.2665218741991788;-0.0088192126434835493;0;0;0;0;0
6.2731954864187731;-0.0092387953251128526;0;0;0;0;0
6.2798690986383674;-0.0095694033573220667;0;0;0;0;0
6.2865427108579626;-0.0098078528040323083;0;0;0;0;0
6.2932163230775569;-0.0099518472667219672;0;0;0;0;0
6.2998899352971511;-0.01;0;0;0;0;0
6.3065635475167454;-0.0099518472667219637;0;0;0;0;0
6.3132371597363397;-0.0098078528040323031;0;0;0;0;0
6.319910771955934;-0.0095694033573220979;0;0;0;0;0
6.3265843841755292;-0.0092387953251128387;0;0;0;0;0
6.3332579963951234;-0.0088192126434835337;0;0;0;0;0
6.3399316086147177;-0.0083146961230254543;0;0;0;0;0
6.346605220834312;-0.0077301045336273964;0;0;0;0;0
6.3532788330539063;-0.0070710678118655326;0;0;0;0;0
6.3599524452735006;-0.006343932841636547;0;0;0;0;0
6.3666260574930957;-0.0055557023301960363;0;0;0;0;0
6.37329966971269;-0.0047139673682599003;0;0;0;0;0
6.3799732819322843;-0.0038268343236508534;0;0;0;0;0
6.3866468941518786;-0.0029028467725446152;0;0;0;0;0
6.3933205063714729;-0.0019509032201613123;0;0;0;0;0
6.399994118591068;-0.0009801714032955332;0;0;0;0;0
6.4066677308106623;3.4314869601589425e-17;0;0;0;0;0
6.4133413430302566;0.00098017140329560151;0;0;0;0;0
6.4200149552498509;0.0019509032201612401;0;0;0;0;0
6.4266885674694452;0.002902846772544545;0;0;0;0;0
6.4333621796890395;0.0038268343236507857;0;0;0;0;0
6.4400357919086346;0.004713967368260086;0;0;0;0;0
6.4467094041282289;0.0055557023301960927;0;0;0;0;0
6.4533830163478232;0.0063439328416364906;0;0;0;0;0
6.4600566285674175;0.0070710678118654805;0;0;0;0;0
6.4667302407870118;0.0077301045336273504;0;0;0;0;0
6.473403853006606;0.0083146961230254144;0;0;0;0;0
6.4800774652262012;0.0088192126434835667;0;0;0;0;0
6.4867510774457955;0.0092387953251128647;0;0;0;0;0
6.4934246896653898;0.0095694033573220771;0;0;0;0;0
6.5000983018849841;0.0098078528040322875;0;0;0;0;0
6.5067719141045783;0.0099518472667219707;0;0;0;0;0
6.5134455263241735;0.01;0;0;0;0;0
6.5201191385437678;0.0099518472667219603;0;0;0;0;0
6.5267927507633621;0.0098078528040322962;0;0;0;0;0
6.5334663629829564;0.0095694033573220875;0;0;0;0;0
6.5401399752025506;0.0092387953251128804;0;0;0;0;0
6.5468135874221449;0.008819212643483584;0;0;0;0;0
6.5534871996417401;0.0083146961230254352;0;0;0;0;0
6.5601608118613344;0.0077301045336273747;0;0;0;0;0
6.5668344240809287;0.0070710678118655083;0;0;0;0;0
6.5735080363005229;0.0063439328416365218;0;0;0;0;0
6.5801816485201172;0.0055557023301960077;0;0;0;0;0
6.5868552607397115;0.0047139673682599957;0;0;0;0;0
6.5935288729593067;0.0038268343236508217;0;0;0;0;0
6.600202485178901;0.0029028467725445823;0;0;0;0;0
6.6068760973984952;0.0019509032201612787;0;0;0;0;0
6.6135497096180895;0.00098017140329564054;0;0;0;0;0
6.6202233218376838;7.3491187561572956e-17;0;0;0;0;0
6.626896934057279;-0.00098017140329563555;0;0;0;0;0
6.6335705462768733;-0.0019509032201612737;0;0;0;0;0
6.6402441584964675;-0.0029028467725445779;0;0;0;0;0
6.6469177707160618;-0.0038268343236509488;0;0;0;0;0
6.6535913829356561;-0.0047139673682599905;0;0;0;0;0
6.6602649951552504;-0.0055557023301960034;0;0;0;0;0
6.6669386073748456;-0.0063439328416365175;0;0;0;0;0
6.6736122195944398;-0.0070710678118655048;0;0;0;0;0
6.6802858318140341;-0.0077301045336273713;0;0;0;0;0
6.6869594440336284;-0.0083146961230254317;0;0;0;0;0
6.6936330562532227;-0.0088192126434835146;0;0;0;0;0
6.700306668472817;-0.0092387953251128248;0;0;0;0;0
6.7069802806924121;-0.0095694033573220857;0;0;0;0;0
6.7136538929120064;-0.0098078528040323222;0;0;0;0;0
6.7203275051316007;-0.0099518472667219741;0;0;0;0;0
6.727001117351195;-0.01;0;0;0;0;0
6.7336747295707893;-0.0099518472667219724;0;0;0;0;0
6.7403483417903844;-0.0098078528040322892;0;0;0;0;0
6.7470219540099787;-0.0095694033573220771;0;0;0;0;0
6.753695566229573;-0.0092387953251128682;0;0;0;0;0
6.7603691784491673;-0.0088192126434835684;0;0;0;0;0
6.7670427906687616;-0.0083146961230254942;0;0;0;0;0
6.7737164028883559;-0.0077301045336274432;0;0;0;0;0
6.780390015107951;-0.007071067811865484;0;0;0;0;0
6.7870636273275453;-0.0063439328416363848;0;0;0;0;0
6.7937372395471396;-0.0055557023301959782;0;0;0;0;0
6.8004108517667339;-0.0047139673682599645;0;0;0;0;0
6.8070844639863282;-0.0038268343236509219;0;0;0;0;0
6.8137580762059224;-0.0029028467725446855;0;0;0;0;0
6.8204316884255176;-0.0019509032201612448;0;0;0;0;0
6.8271053006451119;-0.00098017140329560628;0;0;0;0;0
6.8337789128647062;-3.9188697572715302e-17;0;0;0;0;0
6.8404525250843005;0.00098017140329552843;0;0;0;0;0
6.8471261373038947;0.0019509032201611679;0;0;0;0;0
6.8537997495234899;0.0029028467725447466;0;0;0;0;0
6.8604733617430842;0.0038268343236509805;0;0;0;0;0
6.8671469739626785;0.0047139673682600209;0;0;0;0;0
6.8738205861822728;0.005555702330196032;0;0;0;0;0
6.880494198401867;0.0063439328416364342;0;0;0;0;0
6.8871678106214613;0.0070710678118654285;0;0;0;0;0
6.8938414228410565;0.0077301045336273938;0;0;0;0;0
6.9005150350606508;0.0083146961230254508;0;0;0;0;0
6.9071886472802451;0.008819212643483532;0;0;0;0;0
6.9138622594998393;0.009238795325112837;0;0;0;0;0
6.9205358717194336;0.0095694033573220962;0;0;0;0;0
6.9272094839390279;0.0098078528040323014;0;0;0;0;0
6.9338830961586231;0.0099518472667219776;0;0;0;0;0
6.9405567083782174;0.01;0;0;0;0;0
6.9472303205978116;0.0099518472667219689;0;0;0;0;0
6.9539039328174059;0.0098078528040323101;0;0;0;0;0
6.9605775450370002;0.0095694033573221083;0;0;0;0;0
6.9672511572565954;0.0092387953251128543;0;0;0;0;0
6.9739247694761897;0.0088192126434835511;0;0;0;0;0
6.9805983816957839;0.0083146961230254751;0;0;0;0;0
6.9872719939153782;0.0077301045336274216;0;0;0;0;0
6.9939456061349725;0.0070710678118654606;0;0;0;0;0
7.0006192183545668;0.006343932841636468;0;0;0;0;0
7.007292830574162;0.0055557023301959505;0;0;0;0;0
7.0139664427937563;0.004713967368259935;0;0;0;0;0
7.0206400550133505;0.0038268343236508903;0;0;0;0;0
7.0273136672329448;0.002902846772544653;0;0;0;0;0
7.0339872794525391;0.0019509032201613504;0;0;0;0;0
7.0406608916721334;0.00098017140329571362;0;0;0;0;0
7.0473345038917286;4.8862075838576457e-18;0;0;0;0;0
7.0540081161113228;-0.00098017140329556248;0;0;0;0;0
7.0606817283309171;-0.0019509032201613411;0;0;0;0;0
7.0673553405505114;-0.0029028467725446434;0;0;0;0;0
7.0740289527701057;-0.0038268343236508807;0;0;0;0;0
7.0807025649897009;-0.0047139673682600513;0;0;0;0;0
7.0873761772092951;-0.0055557023301960606;0;0;0;0;0
7.0940497894288894;-0.0063439328416364602;0;0;0;0;0
7.1007234016484837;-0.0070710678118654528;0;0;0;0;0
7.107397013868078;-0.0077301045336273244;0;0;0;0;0
7.1140706260876723;-0.0083146961230253918;0;0;0;0;0
7.1207442383072674;-0.0088192126434835476;0;0;0;0;0
7.1274178505268617;-0.0092387953251129046;0;0;0;0;0
7.134091462746456;-0.0095694033573221066;0;0;0;0;0
7.1407650749660503;-0.0098078528040323083;0;0;0;0;0
7.1474386871856446;-0.0099518472667219672;0;0;0;0;0
7.1541122994052389;-0.01;0;0;0;0;0
7.160785911624834;-0.0099518472667219655;0;0;0;0;0
7.1674595238444283;-0.0098078528040323031;0;0;0;0;0
7.1741331360640226;-0.0095694033573220979;0;0;0;0;0
7.1808067482836169;-0.009238795325112896;0;0;0;0;0
7.1874803605032112;-0.0088192126434836031;0;0;0;0;0
7.1941539727228063;-0.0083146961230254578;0;0;0;0;0
7.2008275849424006;-0.0077301045336273088;0;0;0;0;0
7.2075011971619949;-0.0070710678118654363;0;0;0;0;0
7.2141748093815892;-0.006343932841636442;0;0;0;0;0
7.2208484216011835;-0.0055557023301960398;0;0;0;0;0
7.2275220338207777;-0.0047139673682600296;0;0;0;0;0
7.2341956460403729;-0.0038268343236508577;0;0;0;0;0
7.2408692582599672;-0.00290284677254462;0;0;0;0;0
7.2475428704795615;-0.0019509032201613168;0;0;0;0;0
7.2542164826991558;-0.00098017140329567957;0;0;0;0;0
7.26089009491875;-1.1269226474702002e-16;0;0;0;0;0
7.2675637071383443;0.00098017140329559652;0;0;0;0;0
7.2742373193579395;0.0019509032201613747;0;0;0;0;0
7.2809109315775338;0.002902846772544676;0;0;0;0;0
7.2875845437971281;0.0038268343236509124;0;0;0;0;0
7.2942581560167223;0.0047139673682599567;0;0;0;0;0
7.3009317682363166;0.0055557023301959704;0;0;0;0;0
7.3076053804559118;0.0063439328416364871;0;0;0;0;0
7.3142789926755061;0.0070710678118654771;0;0;0;0;0
7.3209526048951004;0.007730104533627347;0;0;0;0;0
7.3276262171146946;0.0083146961230254109;0;0;0;0;0
7.3342998293342889;0.0088192126434835632;0;0;0;0;0
7.3409734415538832;0.009238795325112863;0;0;0;0;0
7.3476470537734784;0.0095694033573221152;0;0;0;0;0
7.3543206659930727;0.0098078528040323153;0;0;0;0;0
7.3609942782126669;0.0099518472667219707;0;0;0;0;0
7.3676678904322612;0.01;0;0;0;0;0
7.3743415026518555;0.0099518472667219759;0;0;0;0;0
7.3810151148714498;0.0098078528040323239;0;0;0;0;0
7.387688727091045;0.0095694033573220892;0;0;0;0;0
7.3943623393106392;0.0092387953251128821;0;0;0;0;0
7.4010359515302335;0.0088192126434835198;0;0;0;0;0
7.4077095637498278;0.0083146961230254387;0;0;0;0;0
7.4143831759694221;0.0077301045336273782;0;0;0;0;0
7.4210567881890173;0.0070710678118654112;0;0;0;0;0
7.4277304004086115;0.0063439328416364151;0;0;0;0;0
7.4344040126282058;0.0055557023301960121;0;0;0;0;0
7.4410776248478001;0.0047139673682599992;0;0;0;0;0
7.4477512370673944;0.0038268343236509579;0;0;0;0;0
7.4544248492869887;0.0029028467725447232;0;0;0;0;0
7.4610984615065838;0.0019509032201612834;0;0;0;0;0
7.4677720737261781;0.00098017140329564531;0;0;0;0;0
7.4744456859457724;-6.371877239385767e-17;0;0;0;0;0
7.4811192981653667;-0.00098017140329563078;0;0;0;0;0
7.487792910384961;-0.0019509032201612689;0;0;0;0;0
7.4944665226045553;-0.0029028467725445727;0;0;0;0;0
7.5011401348241504;-0.003826834323650944;0;0;0;0;0
7.5078137470437447;-0.0047139673682599862;0;0;0;0;0
7.514487359263339;-0.0055557023301959999;0;0;0;0;0
7.5211609714829333;-0.0063439328416364038;0;0;0;0;0
7.5278345837025276;-0.0070710678118654008;0;0;0;0;0
7.5345081959221227;-0.0077301045336273678;0;0;0;0;0
7.541181808141717;-0.0083146961230255098;0;0;0;0;0
7.5478554203613113;-0.0088192126434835788;0;0;0;0;0
7.5545290325809056;-0.0092387953251128769;0;0;0;0;0
7.5612026448004999;-0.009569403357322084;0;0;0;0;0
7.5678762570200941;-0.0098078528040322945;0;0;0;0;0
7.5745498692396893;-0.0099518472667219741;0;0;0;0;0
7.5812234814592836;-0.01;0;0;0;0;0
7.5878970936788779;-0.0099518472667219724;0;0;0;0;0
7.5945707058984722;-0.009807852804032317;0;0;0;0;0
7.6012443181180664;-0.0095694033573221187;0;0;0;0;0
7.6079179303376616;-0.0092387953251128682;0;0;0;0;0
7.6145915425572559;-0.0088192126434835042;0;0;0;0;0
7.6212651547768502;-0.0083146961230254196;0;0;0;0;0
7.6279387669964445;-0.0077301045336273556;0;0;0;0;0
7.6346123792160387;-0.0070710678118654866;0;0;0;0;0
7.641285991435633;-0.0063439328416364984;0;0;0;0;0
7.6479596036552282;-0.0055557023301959834;0;0;0;0;0
7.6546332158748225;-0.0047139673682599697;0;0;0;0;0
7.6613068280944168;-0.0038268343236509262;0;0;0;0;0
7.667980440314011;-0.0029028467725446898;0;0;0;0;0
7.6746540525336053;-0.0019509032201612498;0;0;0;0;0
7.6813276647531996;-0.00098017140329561127;0;0;0;0;0
7.6880012769727948;9.8021262382715324e-17;0;0;0;0;0
7.6946748891923891;0.00098017140329566483;0;0;0;0;0
7.7013485014119833;0.0019509032201613025;0;0;0;0;0
7.7080221136315776;0.0029028467725446057;0;0;0;0;0
7.7146957258511719;0.0038268343236508447;0;0;0;0;0
7.7213693380707671;0.0047139673682600174;0;0;0;0;0
7.7280429502903614;0.0055557023301960277;0;0;0;0;0
7.7347165625099557;0.0063439328416364307;0;0;0;0;0
7.7413901747295499;0.007071067811865425;0;0;0;0;0
7.7480637869491442;0.0077301045336273903;0;0;0;0;0
7.7547373991687385;0.0083146961230254491;0;0;0;0;0
7.7614110113883337;0.0088192126434835962;0;0;0;0;0
7.768084623607928;0.009238795325112889;0;0;0;0;0
7.7747582358275222;0.0095694033573220944;0;0;0;0;0
7.7814318480471165;0.0098078528040323014;0;0;0;0;0
7.7881054602667108;0.009951847266721962;0;0;0;0;0
7.7947790724863051;0.01;0;0;0;0;0
7.8014526847059003;0.0099518472667219689;0;0;0;0;0
7.8081262969254945;0.0098078528040323118;0;0;0;0;0
7.8147999091450888;0.0095694033573220684;0;0;0;0;0
7.8214735213646831;0.0092387953251128561;0;0;0;0;0
7.8281471335842774;0.0088192126434835545;0;0;0;0;0
7.8348207458038726;0.0083146961230253988;0;0;0;0;0
7.8414943580234668;0.0077301045336273348;0;0;0;0;0
7.8481679702430611;0.0070710678118654641;0;0;0;0;0
7.8548415824626554;0.0063439328416364715;0;0;0;0;0
7.8615151946822497;0.0055557023301960728;0;0;0;0;0
7.868188806901844;0.0047139673682600643;0;0;0;0;0
7.8748624191214391;0.0038268343236508946;0;0;0;0;0
7.8815360313410334;0.0029028467725446573;0;0;0;0;0
7.8882096435606277;0.001950903220161216;0;0;0;0;0
7.894883255780222;0.00098017140329557701;0;0;0;0;0
7.9015568679998163;9.7847947804470584e-18;0;0;0;0;0
7.9082304802194106;-0.00098017140329555771;0;0;0;0;0
7.9149040924390057;-0.0019509032201613361;0;0;0;0;0
7.9215777046586;-0.0029028467725446391;0;0;0;0;0
7.9282513168781943;-0.0038268343236508764;0;0;0;0;0
7.9349249290977886;-0.0047139673682599212;0;0;0;0;0
7.9415985413173829;-0.0055557023301959383;0;0;0;0;0
7.948272153536978;-0.0063439328416364576;0;0;0;0;0
7.9549457657565723;-0.0070710678118655499;0;0;0;0;0
7.9616193779761666;-0.007730104533627412;0;0;0;0;0
7.9682929901957609;-0.0083146961230254682;0;0;0;0;0
7.9749666024153552;-0.0088192126434835458;0;0;0;0;0
7.9816402146349494;-0.0092387953251128491;0;0;0;0;0
7.9883138268545446;-0.0095694033573221048;0;0;0;0;0
7.9949874390741389;-0.0098078528040323083;0;0;0;0;0
8.0016610512937323;-0.0099518472667219533;0;0;0;0;0
8.0083346635133275;-0.01;0;0;0;0;0
8.0150082757329226;-0.0099518472667219655;0;0;0;0;0
8.021681887952516;-0.0098078528040323049;0;0;0;0;0
8.0283555001721112;-0.009569403357322058;0;0;0;0;0
8.0350291123917046;-0.0092387953251128977;0;0;0;0;0
8.0417027246112998;-0.0088192126434835389;0;0;0;0;0
8.0483763368308949;-0.0083146961230253797;0;0;0;0;0
8.0550499490504883;-0.0077301045336274025;0;0;0;0;0
8.0617235612700835;-0.0070710678118654389;0;0;0;0;0
8.0683971734896769;-0.0063439328416365548;0;0;0;0;0
8.0750707857092721;-0.0055557023301960442;0;0;0;0;0
8.0817443979288672;-0.004713967368259909;0;0;0;0;0
8.0884180101484606;-0.0038268343236508629;0;0;0;0;0
8.0950916223680558;-0.0029028467725444886;0;0;0;0;0
8.1017652345876492;-0.0019509032201613216;0;0;0;0;0
8.1084388468072444;-0.00098017140329554296;0;0;0;0;0
8.1151124590268378;-1.1759085194360945e-16;0;0;0;0;0
8.1217860712464329;0.00098017140329559175;0;0;0;0;0
8.1284596834660281;0.00195090322016137;0;0;0;0;0
8.1351332956856215;0.0029028467725445354;0;0;0;0;0
8.1418069079052167;0.003826834323650908;0;0;0;0;0
8.1484805201248101;0.0047139673682598266;0;0;0;0;0
8.1551541323444052;0.0055557023301959661;0;0;0;0;0
8.1618277445640004;0.0063439328416364828;0;0;0;0;0
8.1685013567835938;0.0070710678118654736;0;0;0;0;0
8.175174969003189;0.0077301045336274337;0;0;0;0;0
8.1818485812227824;0.0083146961230254075;0;0;0;0;0
8.1885221934423775;0.0088192126434835615;0;0;0;0;0
8.1951958056619727;0.0092387953251129168;0;0;0;0;0
8.2018694178815661;0.0095694033573220736;0;0;0;0;0
8.2085430301011613;0.0098078528040323153;0;0;0;0;0
8.2152166423207547;0.0099518472667219568;0;0;0;0;0
8.2218902545403498;0.01;0;0;0;0;0
8.2285638667599432;0.0099518472667219759;0;0;0;0;0
8.2352374789795384;0.0098078528040322979;0;0;0;0;0
8.2419110911991336;0.0095694033573220493;0;0;0;0;0
8.248584703418727;0.0092387953251128838;0;0;0;0;0
8.2552583156383221;0.0088192126434835216;0;0;0;0;0
8.2619319278579155;0.0083146961230255185;0;0;0;0;0
8.2686055400775107;0.0077301045336273808;0;0;0;0;0
8.2752791522971059;0.0070710678118654146;0;0;0;0;0
8.2819527645166993;0.0063439328416365279;0;0;0;0;0
8.2886263767362944;0.0055557023301960155;0;0;0;0;0
8.2952999889558878;0.0047139673682600036;0;0;0;0;0
8.301973601175483;0.0038268343236508308;0;0;0;0;0
8.3086472133950782;0.0029028467725444556;0;0;0;0;0
8.3153208256146716;0.001950903220161288;0;0;0;0;0
8.3219944378342667;0.0009801714032955087;0;0;0;0;0
8.3286680500538601;8.3288361954751784e-17;0;0;0;0;0
8.3353416622734553;-0.00098017140329562579;0;0;0;0;0
8.3420152744930487;-0.0019509032201611249;0;0;0;0;0
8.3486888867126439;-0.0029028467725445684;0;0;0;0;0
8.355362498932239;-0.0038268343236509397;0;0;0;0;0
8.3620361111518324;-0.0047139673682599819;0;0;0;0;0
8.3687097233714276;-0.0055557023301961144;0;0;0;0;0
8.375383335591021;-0.0063439328416363995;0;0;0;0;0
8.3820569478106162;-0.0070710678118654979;0;0;0;0;0
8.3887305600302113;-0.0077301045336274554;0;0;0;0;0
8.3954041722498047;-0.0083146961230254265;0;0;0;0;0
8.4020777844693999;-0.0088192126434835771;0;0;0;0;0
8.4087513966889933;-0.0092387953251128214;0;0;0;0;0
8.4154250089085885;-0.0095694033573220823;0;0;0;0;0
8.4220986211281836;-0.0098078528040323205;0;0;0;0;0
8.428772233347777;-0.0099518472667219603;0;0;0;0;0
8.4354458455673722;-0.01;0;0;0;0;0
8.4421194577869656;-0.0099518472667219724;0;0;0;0;0
8.4487930700065608;-0.009807852804032291;0;0;0;0;0
8.4554666822261542;-0.0095694033573221222;0;0;0;0;0
8.4621402944457493;-0.0092387953251128717;0;0;0;0;0
8.4688139066653445;-0.0088192126434835059;0;0;0;0;0
8.4754875188849379;-0.0083146961230254994;0;0;0;0;0
8.4821611311045331;-0.0077301045336273591;0;0;0;0;0
8.4888347433241265;-0.0070710678118655916;0;0;0;0;0
8.4955083555437216;-0.0063439328416365027;0;0;0;0;0
8.5021819677633168;-0.0055557023301959878;0;0;0;0;0
8.5088555799829102;-0.0047139673682599741;0;0;0;0;0
8.5155291922025054;-0.0038268343236507992;0;0;0;0;0
8.5222028044220988;-0.002902846772544695;0;0;0;0;0
8.5288764166416939;-0.0019509032201612544;0;0;0;0;0
8.5355500288612891;-0.00098017140329547466;0;0;0;0;0
8.5422236410808825;-4.8985871965894131e-17;0;0;0;0;0
8.5488972533004777;0.00098017140329566006;0;0;0;0;0
8.5555708655200711;0.0019509032201611585;0;0;0;0;0
8.5622444777396662;0.0029028467725446014;0;0;0;0;0
8.5689180899592596;0.0038268343236508404;0;0;0;0;0
8.5755917021788548;0.0047139673682600122;0;0;0;0;0
8.58226531439845;0.0055557023301961422;0;0;0;0;0
8.5889389266180434;0.0063439328416364264;0;0;0;0;0
8.5956125388376385;0.0070710678118655222;0;0;0;0;0
8.6022861510572319;0.0077301045336272967;0;0;0;0;0
8.6089597632768271;0.0083146961230254456;0;0;0;0;0
8.6156333754964223;0.0088192126434835944;0;0;0;0;0
8.6223069877160157;0.0092387953251128335;0;0;0;0;0
8.6289805999356108;0.0095694033573220927;0;0;0;0;0
8.6356542121552042;0.0098078528040322719;0;0;0;0;0
8.6423278243747994;0.0099518472667219776;0;0;0;0;0
8.6490014365943946;0.01;0;0;0;0;0
8.655675048813988;0.0099518472667219689;0;0;0;0;0
8.6623486610335831;0.009807852804032284;0;0;0;0;0
8.6690222732531765;0.0095694033573221118;0;0;0;0;0
8.6756958854727717;0.0092387953251128578;0;0;0;0;0
8.6823694976923651;0.0088192126434836239;0;0;0;0;0
8.6890431099119603;0.0083146961230254821;0;0;0;0;0
8.6957167221315554;0.0077301045336273366;0;0;0;0;0
8.7023903343511488;0.0070710678118655673;0;0;0;0;0
8.709063946570744;0.0063439328416364758;0;0;0;0;0
8.7157375587903374;0.0055557023301961951;0;0;0;0;0
8.7224111710099326;0.0047139673682600686;0;0;0;0;0
8.7290847832295277;0.0038268343236508989;0;0;0;0;0
8.7357583954491211;0.0029028467725447983;0;0;0;0;0
8.7424320076687163;0.0019509032201613602;0;0;0;0;0
8.7491056198883097;0.00098017140329558199;0;0;0;0;0
8.7557792321079049;-1.2742516517498359e-16;0;0;0;0;0
8.7624528443275;-0.0009801714032958357;0;0;0;0;0
8.7691264565470934;-0.0019509032201613314;0;0;0;0;0
8.7758000687666886;-0.0029028467725447701;0;0;0;0;0
8.782473680986282;-0.0038268343236508716;0;0;0;0;0
8.7891472932058772;-0.0047139673682600426;0;0;0;0;0
8.7958209054254706;-0.005555702330195934;0;0;0;0;0
8.8024945176450657;-0.0063439328416364524;0;0;0;0;0
8.8091681298646609;-0.0070710678118655473;0;0;0;0;0
8.8158417420842543;-0.0077301045336273192;0;0;0;0;0
8.8225153543038495;-0.0083146961230254647;0;0;0;0;0
8.8291889665234429;-0.0088192126434834765;0;0;0;0;0
8.835862578743038;-0.0092387953251128457;0;0;0;0;0
8.8425361909626332;-0.0095694033573221031;0;0;0;0;0
8.8492098031822266;-0.0098078528040322788;0;0;0;0;0
8.8558834154018218;-0.0099518472667219655;0;0;0;0;0
8.8625570276214152;-0.01;0;0;0;0;0
8.8692306398410103;-0.0099518472667219793;0;0;0;0;0
8.8759042520606055;-0.0098078528040323049;0;0;0;0;0
8.8825778642801989;-0.0095694033573220597;0;0;0;0;0
8.8892514764997941;-0.0092387953251127902;0;0;0;0;0
8.8959250887193875;-0.0088192126434835406;0;0;0;0;0
8.9025987009389826;-0.0083146961230253832;0;0;0;0;0
8.909272313158576;-0.0077301045336274059;0;0;0;0;0
8.9159459253781712;-0.0070710678118654424;0;0;0;0;0
8.9226195375977664;-0.0063439328416363397;0;0;0;0;0
8.9292931498173598;-0.0055557023301960485;0;0;0;0;0
8.9359667620369549;-0.0047139673682599133;0;0;0;0;0
8.9426403742565483;-0.0038268343236509982;0;0;0;0;0
8.9493139864761435;-0.0029028467725446296;0;0;0;0;0
8.9559875986957387;-0.0019509032201611869;0;0;0;0;0
8.9626612109153321;-0.00098017140329568911;0;0;0;0;0
8.9693348231349272;1.9619108011821185e-17;0;0;0;0;0
8.9760084353545206;0.00098017140329544538;0;0;0;0;0
8.9826820475741158;0.0019509032201612255;0;0;0;0;0
8.989355659793711;0.0029028467725446669;0;0;0;0;0
8.9960292720133044;0.0038268343236507723;0;0;0;0;0
9.0027028842328995;0.004713967368259948;0;0;0;0;0
9.0093764964524929;0.0055557023301958447;0;0;0;0;0
9.0160501086720881;0.0063439328416363691;0;0;0;0;0
9.0227237208916815;0.0070710678118654701;0;0;0;0;0
9.0293973331112767;0.0077301045336274302;0;0;0;0;0
9.0360709453308719;0.0083146961230255636;0;0;0;0;0
9.0427445575504652;0.0088192126434835597;0;0;0;0;0
9.0494181697700604;0.0092387953251129151;0;0;0;0;0
9.0560917819896538;0.0095694033573220719;0;0;0;0;0
9.062765394209249;0.0098078528040323135;0;0;0;0;0
9.0694390064288442;0.0099518472667219846;0;0;0;0;0
9.0761126186484375;0.01;0;0;0;0;0
9.0827862308680327;0.009951847266721962;0;0;0;0;0
9.0894598430876261;0.0098078528040323274;0;0;0;0;0
9.0961334553072213;0.0095694033573220909;0;0;0;0;0
9.1028070675268165;0.0092387953251128318;0;0;0;0;0
9.1094806797464098;0.0088192126434835909;0;0;0;0;0
9.116154291966005;0.0083146961230254439;0;0;0;0;0
9.1228279041855984;0.0077301045336274745;0;0;0;0;0
9.1295015164051936;0.0070710678118655196;0;0;0;0;0
9.136175128624787;0.0063439328416366424;0;0;0;0;0
9.1428487408443821;0.0055557023301961387;0;0;0;0;0
9.1495223530639773;0.0047139673682600079;0;0;0;0;0
9.1561959652835707;0.0038268343236508356;0;0;0;0;0
9.1628695775031659;0.0029028467725444609;0;0;0;0;0
9.1695431897227593;0.0019509032201612928;0;0;0;0;0
9.1762168019423545;0.00098017140329551369;0;0;0;0;0
9.1828904141619496;-1.9603014515269889e-16;0;0;0;0;0
9.189564026381543;-0.00098017140329562102;0;0;0;0;0
9.1962376386011382;-0.0019509032201613988;0;0;0;0;0
9.2029112508207316;-0.0029028467725445632;0;0;0;0;0
9.2095848630403268;-0.0038268343236509349;0;0;0;0;0
9.2162584752599219;-0.0047139673682601033;0;0;0;0;0
9.2229320874795153;-0.0055557023301959904;0;0;0;0;0
9.2296056996991105;-0.0063439328416365062;0;0;0;0;0
9.2362793119187039;-0.0070710678118653938;0;0;0;0;0
9.2429529241382991;-0.0077301045336273626;0;0;0;0;0
9.2496265363578924;-0.008314696123025345;0;0;0;0;0
9.2563001485774876;-0.0088192126434835077;0;0;0;0;0
9.2629737607970828;-0.0092387953251128734;0;0;0;0;0
9.2696473730166762;-0.0095694033573220406;0;0;0;0;0
9.2763209852362714;-0.0098078528040322927;0;0;0;0;0
9.2829945974558647;-0.0099518472667219447;0;0;0;0;0
9.2896682096754599;-0.01;0;0;0;0;0
9.2963418218950551;-0.0099518472667219724;0;0;0;0;0
9.3030154341146485;-0.0098078528040322927;0;0;0;0;0
9.3096890463342437;-0.0095694033573220406;0;0;0;0;0
9.3163626585538371;-0.0092387953251128734;0;0;0;0;0
9.3230362707734322;-0.0088192126434835077;0;0;0;0;0
9.3297098829930274;-0.008314696123025345;0;0;0;0;0
9.3363834952126208;-0.0077301045336273626;0;0;0;0;0
9.343057107432216;-0.0070710678118653938;0;0;0;0;0
9.3497307196518094;-0.0063439328416365062;0;0;0;0;0
9.3564043318714045;-0.0055557023301959904;0;0;0;0;0
9.3630779440909979;-0.0047139673682601033;0;0;0;0;0
9.3697515563105931;-0.0038268343236509349;0;0;0;0;0
9.3764251685301883;-0.0029028467725445632;0;0;0;0;0
9.3830987807497817;-0.0019509032201613986;0;0;0;0;0
