#Time;LinearAccX;LinearAccY;LinearAccZ;AngularAccX;AngularAccY;AngularAccZ
0;0;0;0;0;0;0
0.0086464016629199426;0.00098017140329560606;0;0;0;0;0
0.017292803325839885;0.0019509032201612826;0;0;0;0;0
0.025939204988759828;0.0029028467725446235;0;0;0;0;0
0.034585606651679771;0.0038268343236508981;0;0;0;0;0
0.04323200831459971;0.0047139673682599758;0;0;0;0;0
0.051878409977519656;0.0055557023301960216;0;0;0;0;0
0.060524811640439602;0.006343932841636455;0;0;0;0;0
0.069171213303359541;0.0070710678118654745;0;0;0;0;0
0.07781761496627948;0.0077301045336273704;0;0;0;0;0
0.086464016629199419;0.0083146961230254508;0;0;0;0;0
0.095110418292119372;0.0088192126434835511;0;0;0;0;0
0.10375681995503931;0.0092387953251128682;0;0;0;0;0
0.11240322161795925;0.0095694033573220892;0;0;0;0;0
0.1210496232808792;0.0098078528040323049;0;0;0;0;0
0.12969602494379914;0.0099518472667219689;0;0;0;0;0
0.13834242660671908;0.01;0;0;0;0;0
0.14698882826963902;0.0099518472667219689;0;0;0;0;0
0.15563522993255896;0.0098078528040323049;0;0;0;0;0
0.1642816315954789;0.0095694033573220892;0;0;0;0;0
0.17292803325839884;0.0092387953251128682;0;0;0;0;0
0.18157443492131881;0.0088192126434835511;0;0;0;0;0
0.19022083658423874;0.0083146961230254508;0;0;0;0;0
0.19886723824715868;0.0077301045336273713;0;0;0;0;0
0.20751363991007862;0.0070710678118654762;0;0;0;0;0
0.21616004157299856;0.006343932841636455;0;0;0;0;0
0.2248064432359185;0.0055557023301960251;0;0;0;0;0
0.23345284489883844;0.0047139673682599784;0;0;0;0;0
0.24209924656175841;0.0038268343236508989;0;0;0;0;0
0.25074564822467832;0.0029028467725446278;0;0;0;0;0
0.25939204988759829;0.0019509032201612817;0;0;0;0;0
0.2680384515505182;0.00098017140329560823;0;0;0;0;0
0.27668485321343816;1.2246467991473532e-18;0;0;0;0;0
0.28533125487635813;-0.00098017140329560585;0;0;0;0;0
0.29397765653927804;-0.0019509032201612791;0;0;0;0;0
0.30262405820219801;-0.0029028467725446257;0;0;0;0;0
0.31127045986511792;-0.0038268343236508968;0;0;0;0;0
0.31991686152803789;-0.0047139673682599767;0;0;0;0;0
0.3285632631909578;-0.0055557023301960199;0;0;0;0;0
0.33720966485387777;-0.0063439328416364524;0;0;0;0;0
0.34585606651679768;-0.007071067811865471;0;0;0;0;0
0.35450246817971764;-0.0077301045336273669;0;0;0;0;0
0.36314886984263761;-0.0083146961230254526;0;0;0;0;0
0.37179527150555752;-0.0088192126434835493;0;0;0;0;0
0.38044167316847749;-0.0092387953251128682;0;0;0;0;0
0.3890880748313974;-0.0095694033573220892;0;0;0;0;0
0.39773447649431737;-0.0098078528040323031;0;0;0;0;0
0.40638087815723728;-0.0099518472667219689;0;0;0;0;0
0.41502727982015725;-0.01;0;0;0;0;0
0.42367368148307721;-0.0099518472667219689;0;0;0;0;0
0.43232008314599712;-0.0098078528040323049;0;0;0;0;0
0.44096648480891709;-0.0095694033573220892;0;0;0;0;0
0.449612886471837;-0.00923879532511287;0;0;0;0;0
0.45825928813475697;-0.0088192126434835511;0;0;0;0;0
0.46690568979767688;-0.0083146961230254543;0;0;0;0;0
0.47555209146059685;-0.0077301045336273687;0;0;0;0;0
0.48419849312351682;-0.0070710678118654771;0;0;0;0;0
0.49284489478643673;-0.0063439328416364594;0;0;0;0;0
0.50149129644935664;-0.0055557023301960294;0;0;0;0;0
0.51013769811227661;-0.0047139673682599793;0;0;0;0;0
0.51878409977519657;-0.0038268343236508959;0;0;0;0;0
0.52743050143811654;-0.0029028467725446252;0;0;0;0;0
0.53607690310103639;-0.0019509032201612873;0;0;0;0;0
0.54472330476395636;-0.00098017140329561387;0;0;0;0;0
0.55336970642687633;-2.4492935982947064e-18;0;0;0;0;0
0.5620161080897963;0.0009801714032956091;0;0;0;0;0
0.57066250975271626;0.0019509032201612826;0;0;0;0;0
0.57930891141563612;0.00290284677254462;0;0;0;0;0
0.58795531307855609;0.0038268343236508911;0;0;0;0;0
0.59660171474147605;0.0047139673682599758;0;0;0;0;0
0.60524811640439602;0.0055557023301960251;0;0;0;0;0
0.61389451806731588;0.0063439328416364481;0;0;0;0;0
0.62254091973023584;0.0070710678118654736;0;0;0;0;0
0.63118732139315581;0.007730104533627366;0;0;0;0;0
0.63983372305607578;0.0083146961230254526;0;0;0;0;0
0.64848012471899574;0.0088192126434835528;0;0;0;0;0
0.6571265263819156;0.0092387953251128647;0;0;0;0;0
0.66577292804483557;0.0095694033573220857;0;0;0;0;0
0.67441932970775553;0.0098078528040323031;0;0;0;0;0
0.6830657313706755;0.0099518472667219689;0;0;0;0;0
0.69171213303359536;0.01;0;0;0;0;0
0.70035853469651532;0.0099518472667219689;0;0;0;0;0
0.70900493635943529;0.0098078528040323066;0;0;0;0;0
0.71765133802235526;0.0095694033573220875;0;0;0;0;0
0.72629773968527522;0.0092387953251128682;0;0;0;0;0
0.73494414134819508;0.0088192126434835511;0;0;0;0;0
0.74359054301111505;0.008314696123025456;0;0;0;0;0
0.75223694467403501;0.0077301045336273756;0;0;0;0;0
0.76088334633695498;0.007071067811865471;0;0;0;0;0
0.76952974799987495;0.0063439328416364541;0;0;0;0;0
0.7781761496627948;0.0055557023301960233;0;0;0;0;0
0.78682255132571477;0.0047139673682599801;0;0;0;0;0
0.79546895298863474;0.003826834323650905;0;0;0;0;0
0.8041153546515547;0.0029028467725446178;0;0;0;0;0
0.81276175631447456;0.0019509032201612973;0;0;0;0;0
0.82140815797739453;0.00098017140329560628;0;0;0;0;0
0.83005455964031449;3.6739403974420592e-18;0;0;0;0;0
0.83870096130323446;-0.00098017140329559891;0;0;0;0;0
0.84734736296615443;-0.0019509032201612899;0;0;0;0;0
0.85599376462907428;-0.0029028467725446105;0;0;0;0;0
0.86464016629199425;-0.0038268343236508985;0;0;0;0;0
0.87328656795491422;-0.0047139673682599741;0;0;0;0;0
0.88193296961783418;-0.0055557023301960173;0;0;0;0;0
0.89057937128075404;-0.0063439328416364472;0;0;0;0;0
0.89922577294367401;-0.0070710678118654658;0;0;0;0;0
0.90787217460659397;-0.0077301045336273713;0;0;0;0;0
0.91651857626951394;-0.0083146961230254508;0;0;0;0;0
0.92516497793243391;-0.0088192126434835493;0;0;0;0;0
0.93381137959535376;-0.0092387953251128647;0;0;0;0;0
0.94245778125827373;-0.0095694033573220857;0;0;0;0;0
0.9511041829211937;-0.0098078528040323049;0;0;0;0;0
0.95975058458411366;-0.0099518472667219689;0;0;0;0;0
0.96839698624703363;-0.01;0;0;0;0;0
0.97704338790995349;-0.0099518472667219689;0;0;0;0;0
0.98568978957287345;-0.0098078528040323066;0;0;0;0;0
0.99433619123579342;-0.0095694033573220875;0;0;0;0;0
1.0029825928987133;-0.0092387953251128734;0;0;0;0;0
1.0116289945616332;-0.0088192126434835511;0;0;0;0;0
1.0202753962245532;-0.008314696123025456;0;0;0;0;0
1.0289217978874732;-0.0077301045336273756;0;0;0;0;0
1.0375681995503931;-0.0070710678118654727;0;0;0;0;0
1.0462146012133131;-0.0063439328416364541;0;0;0;0;0
1.0548610028762331;-0.0055557023301960242;0;0;0;0;0
1.063507404539153;-0.0047139673682599663;0;0;0;0;0
1.0721538062020728;-0.0038268343236509063;0;0;0;0;0
1.0808002078649928;-0.0029028467725446356;0;0;0;0;0
1.0894466095279127;-0.0019509032201612984;0;0;0;0;0
1.0980930111908327;-0.00098017140329560758;0;0;0;0;0
1.1067394128537527;-4.8985871965894128e-18;0;0;0;0;0
1.1153858145166726;0.00098017140329559782;0;0;0;0;0
1.1240322161795926;0.0019509032201612886;0;0;0;0;0
1.1326786178425126;0.0029028467725446261;0;0;0;0;0
1.1413250195054325;0.0038268343236508972;0;0;0;0;0
1.1499714211683523;0.0047139673682599576;0;0;0;0;0
1.1586178228312722;0.0055557023301960164;0;0;0;0;0
1.1672642244941922;0.0063439328416364472;0;0;0;0;0
1.1759106261571122;0.0070710678118654658;0;0;0;0;0
1.1845570278200321;0.0077301045336273704;0;0;0;0;0
1.1932034294829521;0.0083146961230254508;0;0;0;0;0
1.2018498311458721;0.0088192126434835476;0;0;0;0;0
1.210496232808792;0.0092387953251128717;0;0;0;0;0
1.219142634471712;0.0095694033573220909;0;0;0;0;0
1.2277890361346318;0.0098078528040323014;0;0;0;0;0
1.2364354377975517;0.0099518472667219672;0;0;0;0;0
1.2450818394604717;0.01;0;0;0;0;0
1.2537282411233917;0.0099518472667219689;0;0;0;0;0
1.2623746427863116;0.0098078528040323066;0;0;0;0;0
1.2710210444492316;0.0095694033573220892;0;0;0;0;0
1.2796674461121516;0.0092387953251128682;0;0;0;0;0
1.2883138477750715;0.0088192126434835528;0;0;0;0;0
1.2969602494379915;0.0083146961230254474;0;0;0;0;0
1.3056066511009112;0.0077301045336273877;0;0;0;0;0
1.3142530527638312;0.0070710678118654858;0;0;0;0;0
1.3228994544267512;0.0063439328416364698;0;0;0;0;0
1.3315458560896711;0.0055557023301960398;0;0;0;0;0
1.3401922577525911;0.0047139673682599827;0;0;0;0;0
1.3488386594155111;0.0038268343236509072;0;0;0;0;0
1.357485061078431;0.00290284677254462;0;0;0;0;0
1.366131462741351;0.0019509032201612821;0;0;0;0;0
1.374777864404271;0.00098017140329560888;0;0;0;0;0
1.3834242660671907;2.388680238973927e-17;0;0;0;0;0
1.3920706677301107;-0.00098017140329557896;0;0;0;0;0
1.4007170693930306;-0.00195090322016127;0;0;0;0;0
1.4093634710559506;-0.0029028467725446083;0;0;0;0;0
1.4180098727188706;-0.0038268343236508794;0;0;0;0;0
1.4266562743817905;-0.0047139673682599567;0;0;0;0;0
1.4353026760447105;-0.0055557023301960294;0;0;0;0;0
1.4439490777076305;-0.0063439328416364594;0;0;0;0;0
1.4525954793705504;-0.0070710678118654771;0;0;0;0;0
1.4612418810334704;-0.0077301045336273687;0;0;0;0;0
1.4698882826963902;-0.0083146961230254508;0;0;0;0;0
1.4785346843593101;-0.0088192126434835476;0;0;0;0;0
1.4871810860222301;-0.009238795325112863;0;0;0;0;0
1.4958274876851501;-0.0095694033573220857;0;0;0;0;0
1.50447388934807;-0.0098078528040323014;0;0;0;0;0
1.51312029101099;-0.0099518472667219672;0;0;0;0;0
1.52176669267391;-0.01;0;0;0;0;0
1.5304130943368299;-0.0099518472667219689;0;0;0;0;0
1.5390594959997499;-0.0098078528040323031;0;0;0;0;0
1.5477058976626696;-0.0095694033573220979;0;0;0;0;0
1.5563522993255896;-0.0092387953251128682;0;0;0;0;0
1.5649987009885096;-0.0088192126434835528;0;0;0;0;0
1.5736451026514295;-0.0083146961230254578;0;0;0;0;0
1.5822915043143495;-0.0077301045336273782;0;0;0;0;0
1.5909379059772695;-0.0070710678118654866;0;0;0;0;0
1.5995843076401894;-0.0063439328416364706;0;0;0;0;0
1.6082307093031094;-0.0055557023301960121;0;0;0;0;0
1.6168771109660294;-0.004713967368259968;0;0;0;0;0
1.6255235126289491;-0.0038268343236509249;0;0;0;0;0
1.6341699142918691;-0.0029028467725446551;0;0;0;0;0
1.6428163159547891;-0.0019509032201612834;0;0;0;0;0
1.651462717617709;-0.00098017140329560997;0;0;0;0;0
1.660109119280629;-7.3478807948841184e-18;0;0;0;0;0
1.668755520943549;0.00098017140329559544;0;0;0;0;0
1.6774019226064689;0.0019509032201612689;0;0;0;0;0
1.6860483242693889;0.0029028467725446074;0;0;0;0;0
1.6946947259323089;0.0038268343236509111;0;0;0;0;0
1.7033411275952286;0.0047139673682599558;0;0;0;0;0
1.7119875292581486;0.0055557023301959999;0;0;0;0;0
1.7206339309210685;0.0063439328416364316;0;0;0;0;0
1.7292803325839885;0.0070710678118654762;0;0;0;0;0
1.7379267342469085;0.0077301045336273678;0;0;0;0;0
1.7465731359098284;0.0083146961230254491;0;0;0;0;0
1.7552195375727484;0.0088192126434835458;0;0;0;0;0
1.7638659392356684;0.009238795325112863;0;0;0;0;0
1.7725123408985883;0.009569403357322084;0;0;0;0;0
1.7811587425615081;0.0098078528040323014;0;0;0;0;0
1.789805144224428;0.0099518472667219672;0;0;0;0;0
1.798451545887348;0.01;0;0;0;0;0
1.807097947550268;0.0099518472667219724;0;0;0;0;0
1.8157443492131879;0.0098078528040323049;0;0;0;0;0
1.8243907508761079;0.0095694033573220892;0;0;0;0;0
1.8330371525390279;0.0092387953251128682;0;0;0;0;0
1.8416835542019478;0.0088192126434835545;0;0;0;0;0
1.8503299558648678;0.0083146961230254578;0;0;0;0;0
1.8589763575277876;0.0077301045336273791;0;0;0;0;0
1.8676227591907075;0.0070710678118654866;0;0;0;0;0
1.8762691608536275;0.0063439328416364706;0;0;0;0;0
1.8849155625165475;0.0055557023301960416;0;0;0;0;0
1.8935619641794674;0.0047139673682600001;0;0;0;0;0
1.9022083658423874;0.0038268343236508933;0;0;0;0;0
1.9108547675053074;0.0029028467725446222;0;0;0;0;0
1.9195011691682273;0.0019509032201612845;0;0;0;0;0
1.9281475708311473;0.00098017140329561127;0;0;0;0;0
1.9367939724940673;8.572527594031472e-18;0;0;0;0;0
1.945440374156987;-0.00098017140329559414;0;0;0;0;0
1.954086775819907;-0.0019509032201612678;0;0;0;0;0
1.9627331774828269;-0.0029028467725446057;0;0;0;0;0
1.9713795791457469;-0.0038268343236508772;0;0;0;0;0
1.9800259808086669;-0.0047139673682599541;0;0;0;0;0
1.9886723824715868;-0.0055557023301960277;0;0;0;0;0
1.9973187841345068;-0.0063439328416364576;0;0;0;0;0
2.0059651857974266;-0.0070710678118654502;0;0;0;0;0
2.0146115874603465;-0.0077301045336273444;0;0;0;0;0
2.0232579891232665;-0.0083146961230254491;0;0;0;0;0
2.0319043907861865;-0.0088192126434835458;0;0;0;0;0
2.0405507924491064;-0.009238795325112863;0;0;0;0;0
2.0491971941120264;-0.009569403357322084;0;0;0;0;0
2.0578435957749464;-0.0098078528040323014;0;0;0;0;0
2.0664899974378663;-0.0099518472667219672;0;0;0;0;0
2.0751363991007863;-0.01;0;0;0;0;0
2.0837828007637063;-0.0099518472667219689;0;0;0;0;0
2.0924292024266262;-0.0098078528040323049;0;0;0;0;0
2.1010756040895462;-0.0095694033573220892;0;0;0;0;0
2.1097220057524662;-0.00923879532511287;0;0;0;0;0
2.1183684074153861;-0.0088192126434835545;0;0;0;0;0
2.1270148090783061;-0.0083146961230254387;0;0;0;0;0
2.1356612107412256;-0.0077301045336274025;0;0;0;0;0
2.1443076124041456;-0.0070710678118654884;0;0;0;0;0
2.1529540140670655;-0.0063439328416364715;0;0;0;0;0
2.1616004157299855;-0.0055557023301960433;0;0;0;0;0
2.1702468173929055;-0.0047139673682600018;0;0;0;0;0
2.1788932190558254;-0.0038268343236509271;0;0;0;0;0
2.1875396207187454;-0.0029028467725446573;0;0;0;0;0
2.1961860223816654;-0.0019509032201612858;0;0;0;0;0
2.2048324240445853;-0.00098017140329561235;0;0;0;0;0
2.2134788257075053;-9.7971743931788255e-18;0;0;0;0;0
2.2221252273704253;0.00098017140329559284;0;0;0;0;0
2.2307716290333452;0.0019509032201612665;0;0;0;0;0
2.2394180306962652;0.0029028467725446044;0;0;0;0;0
2.2480644323591852;0.0038268343236509089;0;0;0;0;0
2.2567108340221051;0.0047139673682599845;0;0;0;0;0
2.2653572356850251;0.0055557023301960277;0;0;0;0;0
2.2740036373479451;0.0063439328416364576;0;0;0;0;0
2.2826500390108651;0.0070710678118654745;0;0;0;0;0
2.291296440673785;0.0077301045336273669;0;0;0;0;0
2.2999428423367045;0.0083146961230254283;0;0;0;0;0
2.3085892439996245;0.0088192126434835285;0;0;0;0;0
2.3172356456625445;0.0092387953251128613;0;0;0;0;0
2.3258820473254644;0.009569403357322084;0;0;0;0;0
2.3345284489883844;0.0098078528040322997;0;0;0;0;0
2.3431748506513044;0.0099518472667219655;0;0;0;0;0
2.3518212523142243;0.01;0;0;0;0;0
2.3604676539771443;0.0099518472667219724;0;0;0;0;0
2.3691140556400643;0.0098078528040323049;0;0;0;0;0
2.3777604573029842;0.0095694033573220892;0;0;0;0;0
2.3864068589659042;0.00923879532511287;0;0;0;0;0
2.3950532606288242;0.0088192126434835545;0;0;0;0;0
2.4036996622917441;0.0083146961230254595;0;0;0;0;0
2.4123460639546641;0.0077301045336273799;0;0;0;0;0
2.4209924656175841;0.0070710678118654641;0;0;0;0;0
2.429638867280504;0.0063439328416364446;0;0;0;0;0
2.438285268943424;0.0055557023301960155;0;0;0;0;0
2.446931670606344;0.0047139673682599715;0;0;0;0;0
2.4555780722692635;0.0038268343236509284;0;0;0;0;0
2.4642244739321835;0.0029028467725446582;0;0;0;0;0
2.4728708755951034;0.0019509032201613216;0;0;0;0;0
2.4815172772580234;0.000980171403295649;0;0;0;0;0
2.4901636789209434;1.1021821192326179e-17;0;0;0;0;0
2.4988100805838633;-0.00098017140329559175;0;0;0;0;0
2.5074564822467833;-0.0019509032201612652;0;0;0;0;0
2.5161028839097033;-0.0029028467725446035;0;0;0;0;0
2.5247492855726232;-0.0038268343236508751;0;0;0;0;0
2.5333956872355432;-0.0047139673682599524;0;0;0;0;0
2.5420420888984632;-0.0055557023301960259;0;0;0;0;0
2.5506884905613831;-0.0063439328416364559;0;0;0;0;0
2.5593348922243031;-0.0070710678118654736;0;0;0;0;0
2.5679812938872231;-0.007730104533627366;0;0;0;0;0
2.576627695550143;-0.0083146961230254474;0;0;0;0;0
2.585274097213063;-0.0088192126434835441;0;0;0;0;0
2.593920498875983;-0.0092387953251128752;0;0;0;0;0
2.6025669005389029;-0.0095694033573220944;0;0;0;0;0
2.6112133022018225;-0.0098078528040322927;0;0;0;0;0
2.6198597038647424;-0.0099518472667219655;0;0;0;0;0
2.6285061055276624;-0.01;0;0;0;0;0
2.6371525071905824;-0.0099518472667219724;0;0;0;0;0
2.6457989088535023;-0.0098078528040323118;0;0;0;0;0
2.6544453105164223;-0.0095694033573221014;0;0;0;0;0
2.6630917121793423;-0.0092387953251128838;0;0;0;0;0
2.6717381138422622;-0.0088192126434835545;0;0;0;0;0
2.6803845155051822;-0.0083146961230254595;0;0;0;0;0
2.6890309171681022;-0.0077301045336273808;0;0;0;0;0
2.6976773188310221;-0.0070710678118654901;0;0;0;0;0
2.7063237204939421;-0.0063439328416364741;0;0;0;0;0
2.7149701221568621;-0.0055557023301960155;0;0;0;0;0
2.723616523819782;-0.0047139673682599723;0;0;0;0;0
2.732262925482702;-0.0038268343236508968;0;0;0;0;0
2.740909327145622;-0.0029028467725446257;0;0;0;0;0
2.7495557288085419;-0.001950903220161288;0;0;0;0;0
2.7582021304714619;-0.00098017140329561495;0;0;0;0;0
2.7668485321343814;-4.777360477947854e-17;0;0;0;0;0
2.7754949337973014;0.0009801714032955551;0;0;0;0;0
2.7841413354602214;0.0019509032201612292;0;0;0;0;0
2.7927877371231413;0.0029028467725446022;0;0;0;0;0
2.8014341387860613;0.0038268343236508742;0;0;0;0;0
2.8100805404489813;0.0047139673682599506;0;0;0;0;0
2.8187269421119012;0.0055557023301959956;0;0;0;0;0
2.8273733437748212;0.006343932841636455;0;0;0;0;0
2.8360197454377412;0.0070710678118654485;0;0;0;0;0
2.8446661471006611;0.007730104533627366;0;0;0;0;0
2.8533125487635811;0.0083146961230254265;0;0;0;0;0
2.8619589504265011;0.0088192126434835441;0;0;0;0;0
2.870605352089421;0.0092387953251128734;0;0;0;0;0
2.879251753752341;0.0095694033573220823;0;0;0;0;0
2.887898155415261;0.0098078528040323066;0;0;0;0;0
2.8965445570781809;0.0099518472667219655;0;0;0;0;0
2.9051909587411009;0.01;0;0;0;0;0
2.9138373604040209;0.0099518472667219655;0;0;0;0;0
2.9224837620669408;0.0098078528040323049;0;0;0;0;0
2.9311301637298603;0.0095694033573221014;0;0;0;0;0
2.9397765653927803;0.0092387953251128717;0;0;0;0;0
2.9484229670557003;0.0088192126434835736;0;0;0;0;0
2.9570693687186203;0.0083146961230254612;0;0;0;0;0
2.9657157703815402;0.0077301045336274042;0;0;0;0;0
2.9743621720444602;0.0070710678118654918;0;0;0;0;0
2.9830085737073802;0.0063439328416365027;0;0;0;0;0
2.9916549753703001;0.0055557023301960459;0;0;0;0;0
3.0003013770332201;0.0047139673682599741;0;0;0;0;0
3.0089477786961401;0.0038268343236509306;0;0;0;0;0
3.01759418035906;0.0029028467725446265;0;0;0;0;0
3.02624058202198;0.0019509032201613242;0;0;0;0;0
3.0348869836849;0.00098017140329561604;0;0;0;0;0
3.0435333853478199;-2.2056021997384124e-17;0;0;0;0;0
3.0521797870107399;-0.00098017140329558937;0;0;0;0;0
3.0608261886736599;-0.0019509032201612978;0;0;0;0;0
3.0694725903365798;-0.0029028467725446014;0;0;0;0;0
3.0781189919994998;-0.0038268343236509059;0;0;0;0;0
3.0867653936624193;-0.0047139673682599498;0;0;0;0;0
3.0954117953253393;-0.0055557023301959652;0;0;0;0;0
3.1040581969882592;-0.0063439328416364264;0;0;0;0;0
3.1127045986511792;-0.007071067811865471;0;0;0;0;0
3.1213510003140992;-0.0077301045336273426;0;0;0;0;0
3.1299974019770191;-0.0083146961230254456;0;0;0;0;0
3.1386438036399391;-0.0088192126434835268;0;0;0;0;0
3.1472902053028591;-0.0092387953251128613;0;0;0;0;0
3.155936606965779;-0.0095694033573220719;0;0;0;0;0
3.164583008628699;-0.0098078528040322997;0;0;0;0;0
3.173229410291619;-0.0099518472667219689;0;0;0;0;0
3.1818758119545389;-0.01;0;0;0;0;0
3.1905222136174589;-0.0099518472667219689;0;0;0;0;0
3.1991686152803789;-0.0098078528040323118;0;0;0;0;0
3.2078150169432988;-0.0095694033573220909;0;0;0;0;0
3.2164614186062188;-0.0092387953251128578;0;0;0;0;0
3.2251078202691388;-0.0088192126434835563;0;0;0;0;0
3.2337542219320587;-0.0083146961230254422;0;0;0;0;0
3.2424006235949783;-0.0077301045336273825;0;0;0;0;0
3.2510470252578982;-0.007071067811865517;0;0;0;0;0
3.2596934269208182;-0.0063439328416364758;0;0;0;0;0
3.2683398285837382;-0.0055557023301960771;0;0;0;0;0
3.2769862302466581;-0.0047139673682600062;0;0;0;0;0
3.2856326319095781;-0.0038268343236508989;0;0;0;0;0
3.2942790335724981;-0.0029028467725446621;0;0;0;0;0
3.302925435235418;-0.0019509032201612906;0;0;0;0;0
3.311571836898338;-0.00098017140329565268;0;0;0;0;0
3.320218238561258;-1.4695761589768237e-17;0;0;0;0;0
3.3288646402241779;0.00098017140329555272;0;0;0;0;0
3.3375110418870979;0.0019509032201612618;0;0;0;0;0
3.3461574435500179;0.0029028467725446339;0;0;0;0;0
3.3548038452129378;0.0038268343236508716;0;0;0;0;0
3.3634502468758578;0.0047139673682599801;0;0;0;0;0
3.3720966485387778;0.005555702330195993;0;0;0;0;0
3.3807430502016977;0.0063439328416364524;0;0;0;0;0
3.3893894518646177;0.0070710678118654962;0;0;0;0;0
3.3980358535275377;0.0077301045336273634;0;0;0;0;0
3.4066822551904572;0.0083146961230254265;0;0;0;0;0
3.4153286568533772;0.0088192126434835424;0;0;0;0;0
3.4239750585162971;0.0092387953251128457;0;0;0;0;0
3.4326214601792171;0.0095694033573220823;0;0;0;0;0
3.4412678618421371;0.0098078528040322927;0;0;0;0;0
3.449914263505057;0.0099518472667219655;0;0;0;0;0
3.458560665167977;0.01;0;0;0;0;0
3.467207066830897;0.0099518472667219724;0;0;0;0;0
3.4758534684938169;0.0098078528040323049;0;0;0;0;0
3.4844998701567369;0.0095694033573221014;0;0;0;0;0
3.4931462718196569;0.0092387953251128717;0;0;0;0;0
3.5017926734825768;0.0088192126434835736;0;0;0;0;0
3.5104390751454968;0.008314696123025463;0;0;0;0;0
3.5190854768084168;0.00773010453362736;0;0;0;0;0
3.5277318784713367;0.0070710678118654927;0;0;0;0;0
3.5363782801342567;0.0063439328416364498;0;0;0;0;0
3.5450246817971767;0.0055557023301960485;0;0;0;0;0
3.5536710834600966;0.0047139673682599758;0;0;0;0;0
3.5623174851230162;0.0038268343236509328;0;0;0;0;0
3.5709638867859361;0.0029028467725446972;0;0;0;0;0
3.5796102884488561;0.0019509032201613266;0;0;0;0;0
3.5882566901117761;0.00098017140329561864;0;0;0;0;0
3.596903091774696;5.1447545176920603e-17;0;0;0;0;0
3.605549493437616;-0.00098017140329558698;0;0;0;0;0
3.614195895100536;-0.0019509032201612255;0;0;0;0;0
3.6228422967634559;-0.0029028467725445988;0;0;0;0;0
3.6314886984263759;-0.0038268343236509033;0;0;0;0;0
3.6401351000892959;-0.004713967368259948;0;0;0;0;0
3.6487815017522158;-0.0055557023301960216;0;0;0;0;0
3.6574279034151358;-0.0063439328416364247;0;0;0;0;0
3.6660743050780558;-0.0070710678118654701;0;0;0;0;0
3.6747207067409757;-0.00773010453362734;0;0;0;0;0
3.6833671084038957;-0.0083146961230254439;0;0;0;0;0
3.6920135100668157;-0.008819212643483558;0;0;0;0;0
3.7006599117297356;-0.0092387953251128595;0;0;0;0;0
3.7093063133926556;-0.0095694033573220909;0;0;0;0;0
3.7179527150555751;-0.0098078528040322997;0;0;0;0;0
3.7265991167184951;-0.009951847266721962;0;0;0;0;0
3.7352455183814151;-0.01;0;0;0;0;0
3.743891920044335;-0.0099518472667219759;0;0;0;0;0
3.752538321707255;-0.0098078528040323118;0;0;0;0;0
3.761184723370175;-0.0095694033573220909;0;0;0;0;0
3.7698311250330949;-0.0092387953251128873;0;0;0;0;0
3.7784775266960149;-0.008819212643483558;0;0;0;0;0
3.7871239283589349;-0.0083146961230254821;0;0;0;0;0
3.7957703300218548;-0.0077301045336273834;0;0;0;0;0
3.8044167316847748;-0.0070710678118654684;0;0;0;0;0
3.8130631333476948;-0.0063439328416364776;0;0;0;0;0
3.8217095350106147;-0.0055557023301960199;0;0;0;0;0
3.8303559366735347;-0.0047139673682600079;0;0;0;0;0
3.8390023383364547;-0.0038268343236509011;0;0;0;0;0
3.8476487399993746;-0.0029028467725446643;0;0;0;0;0
3.8562951416622946;-0.0019509032201612928;0;0;0;0;0
3.8649415433252146;-0.00098017140329558438;0;0;0;0;0
3.8735879449881345;-1.7145055188062944e-17;0;0;0;0;0
3.882234346651054;0.00098017140329555033;0;0;0;0;0
3.890880748313974;0.0019509032201612592;0;0;0;0;0
3.899527149976894;0.0029028467725445632;0;0;0;0;0
3.9081735516398139;0.0038268343236508694;0;0;0;0;0
3.9168199533027339;0.0047139673682599151;0;0;0;0;0
3.9254663549656539;0.0055557023301959904;0;0;0;0;0
3.9341127566285738;0.0063439328416364507;0;0;0;0;0
3.9427591582914938;0.0070710678118654433;0;0;0;0;0
3.9514055599544138;0.0077301045336273626;0;0;0;0;0
3.9600519616173337;0.0083146961230254248;0;0;0;0;0
3.9686983632802537;0.0088192126434835424;0;0;0;0;0
3.9773447649431737;0.0092387953251128734;0;0;0;0;0
3.9859911666060936;0.0095694033573220823;0;0;0;0;0
3.9946375682690136;0.0098078528040323049;0;0;0;0;0
4.0032839699319336;0.0099518472667219655;0;0;0;0;0
4.0119303715948531;0.01;0;0;0;0;0
4.0205767732577735;0.0099518472667219724;0;0;0;0;0
4.029223174920693;0.0098078528040323205;0;0;0;0;0
4.0378695765836135;0.0095694033573220823;0;0;0;0;0
4.046515978246533;0.0092387953251128734;0;0;0;0;0
4.0551623799094534;0.0088192126434835424;0;0;0;0;0
4.0638087815723729;0.008314696123025463;0;0;0;0;0
4.0724551832352933;0.0077301045336273626;0;0;0;0;0
4.0811015848982128;0.0070710678118654944;0;0;0;0;0
4.0897479865611333;0.0063439328416364507;0;0;0;0;0
4.0983943882240528;0.0055557023301960511;0;0;0;0;0
4.1070407898869732;0.0047139673682599784;0;0;0;0;0
4.1156871915498927;0.0038268343236509349;0;0;0;0;0
4.1243335932128122;0.0029028467725446994;0;0;0;0;0
4.1329799948757326;0.001950903220161329;0;0;0;0;0
4.1416263965386522;0.00098017140329569171;0;0;0;0;0
4.1502727982015726;-1.7157434800794713e-17;0;0;0;0;0
4.1589191998644921;-0.00098017140329551369;0;0;0;0;0
4.1675656015274125;-0.001950903220161293;0;0;0;0;0
4.176212003190332;-0.0029028467725445966;0;0;0;0;0
4.1848584048532524;-0.0038268343236509011;0;0;0;0;0
4.193504806516172;-0.0047139673682599454;0;0;0;0;0
4.2021512081790924;-0.0055557023301960199;0;0;0;0;0
4.2107976098420119;-0.0063439328416364229;0;0;0;0;0
4.2194440115049323;-0.0070710678118654684;0;0;0;0;0
4.2280904131678518;-0.0077301045336273392;0;0;0;0;0
4.2367368148307722;-0.0083146961230254439;0;0;0;0;0
4.2453832164936918;-0.0088192126434835233;0;0;0;0;0
4.2540296181566122;-0.0092387953251128873;0;0;0;0;0
4.2626760198195317;-0.0095694033573220701;0;0;0;0;0
4.2713224214824512;-0.009807852804032284;0;0;0;0;0
4.2799688231453716;-0.0099518472667219689;0;0;0;0;0
4.2886152248082912;-0.01;0;0;0;0;0
4.2972616264712116;-0.0099518472667219689;0;0;0;0;0
4.3059080281341311;-0.0098078528040323135;0;0;0;0;0
4.3145544297970515;-0.0095694033573220909;0;0;0;0;0
4.323200831459971;-0.0092387953251128873;0;0;0;0;0
4.3318472331228914;-0.008819212643483558;0;0;0;0;0
4.340493634785811;-0.0083146961230254855;0;0;0;0;0
4.3491400364487314;-0.007730104533627386;0;0;0;0;0
4.3577864381116509;-0.0070710678118655204;0;0;0;0;0
4.3664328397745713;-0.0063439328416364793;0;0;0;0;0
4.3750792414374908;-0.0055557023301960806;0;0;0;0;0
4.3837256431004112;-0.004713967368259948;0;0;0;0;0
4.3923720447633308;-0.0038268343236509033;0;0;0;0;0
4.4010184464262512;-0.0029028467725445988;0;0;0;0;0
4.4096648480891707;-0.0019509032201612954;0;0;0;0;0
4.4183112497520911;-0.00098017140329558676;0;0;0;0;0
4.4269576514150106;-1.9594348786357651e-17;0;0;0;0;0
4.4356040530779302;0.00098017140329554773;0;0;0;0;0
4.4442504547408506;0.001950903220161257;0;0;0;0;0
4.4528968564037701;0.002902846772544561;0;0;0;0;0
4.4615432580666905;0.0038268343236508673;0;0;0;0;0
4.47018965972961;0.0047139673682599133;0;0;0;0;0
4.4788360613925304;0.0055557023301959895;0;0;0;0;0
4.48748246305545;0.0063439328416363943;0;0;0;0;0
4.4961288647183704;0.0070710678118654927;0;0;0;0;0
4.5047752663812899;0.0077301045336273157;0;0;0;0;0
4.5134216680442103;0.008314696123025463;0;0;0;0;0
4.5220680697071298;0.0088192126434835406;0;0;0;0;0
4.5307144713700502;0.0092387953251128717;0;0;0;0;0
4.5393608730329698;0.0095694033573220805;0;0;0;0;0
4.5480072746958902;0.0098078528040323049;0;0;0;0;0
4.5566536763588097;0.0099518472667219655;0;0;0;0;0
4.5653000780217301;0.01;0;0;0;0;0
4.5739464796846496;0.0099518472667219724;0;0;0;0;0
4.58259288134757;0.0098078528040323066;0;0;0;0;0
4.5912392830104896;0.0095694033573221031;0;0;0;0;0
4.5998856846734091;0.0092387953251129012;0;0;0;0;0
4.6085320863363295;0.0088192126434835771;0;0;0;0;0
4.617178487999249;0.0083146961230255046;0;0;0;0;0
4.6258248896621694;0.0077301045336273634;0;0;0;0;0
4.6344712913250889;0.0070710678118654962;0;0;0;0;0
4.6431176929880094;0.0063439328416364524;0;0;0;0;0
4.6517640946509289;0.005555702330196052;0;0;0;0;0
4.6604104963138493;0.0047139673682599801;0;0;0;0;0
4.6690568979767688;0.0038268343236509375;0;0;0;0;0
4.6777032996396892;0.0029028467725446339;0;0;0;0;0
4.6863497013026088;0.0019509032201613314;0;0;0;0;0
4.6949961029655292;0.00098017140329562341;0;0;0;0;0
4.7036425046284487;5.6346132373510012e-17;0;0;0;0;0
4.7122889062913691;-0.00098017140329558199;0;0;0;0;0
4.7209353079542886;-0.001950903220161221;0;0;0;0;0
4.729581709617209;-0.0029028467725446621;0;0;0;0;0
4.7382281112801286;-0.0038268343236508989;0;0;0;0;0
4.7468745129430481;-0.0047139673682598804;0;0;0;0;0
4.7555209146059685;-0.0055557023301960173;0;0;0;0;0
4.764167316268888;-0.0063439328416364203;0;0;0;0;0
4.7728137179318084;-0.0070710678118654667;0;0;0;0;0
4.7814601195947279;-0.0077301045336273366;0;0;0;0;0
4.7901065212576484;-0.0083146961230254422;0;0;0;0;0
4.7987529229205679;-0.0088192126434835233;0;0;0;0;0
4.8073993245834883;-0.0092387953251128578;0;0;0;0;0
4.8160457262464078;-0.0095694033573220701;0;0;0;0;0
4.8246921279093282;-0.0098078528040322979;0;0;0;0;0
4.8333385295722477;-0.009951847266721962;0;0;0;0;0
4.8419849312351682;-0.01;0;0;0;0;0
4.8506313328980877;-0.0099518472667219776;0;0;0;0;0
4.8592777345610081;-0.0098078528040322997;0;0;0;0;0
4.8679241362239276;-0.0095694033573220927;0;0;0;0;0
4.876570537886848;-0.0092387953251128613;0;0;0;0;0
4.8852169395497675;-0.0088192126434835615;0;0;0;0;0
4.893863341212688;-0.0083146961230254456;0;0;0;0;0
4.9025097428756075;-0.0077301045336273869;0;0;0;0;0
4.911156144538527;-0.0070710678118655222;0;0;0;0;0
4.9198025462014474;-0.0063439328416364819;0;0;0;0;0
4.9284489478643669;-0.0055557023301960832;0;0;0;0;0
4.9370953495272873;-0.0047139673682600122;0;0;0;0;0
4.9457417511902069;-0.0038268343236509714;0;0;0;0;0
4.9543881528531273;-0.002902846772544669;0;0;0;0;0
4.9630345545160468;-0.0019509032201613674;0;0;0;0;0
4.9716809561789672;-0.00098017140329558937;0;0;0;0;0
4.9803273578418867;-2.2043642384652358e-17;0;0;0;0;0
4.9889737595048071;0.00098017140329561604;0;0;0;0;0
4.9976201611677267;0.0019509032201612544;0;0;0;0;0
5.0062665628306471;0.0029028467725446265;0;0;0;0;0
5.0149129644935666;0.0038268343236508651;0;0;0;0;0
5.023559366156487;0.0047139673682599741;0;0;0;0;0
5.0322057678194065;0.0055557023301959878;0;0;0;0;0
5.0408521694823269;0.0063439328416364472;0;0;0;0;0
5.0494985711452465;0.0070710678118654407;0;0;0;0;0
5.0581449728081669;0.0077301045336273591;0;0;0;0;0
5.0667913744710864;0.0083146961230254213;0;0;0;0;0
5.0754377761340059;0.0088192126434835059;0;0;0;0;0
5.0840841777969263;0.0092387953251128717;0;0;0;0;0
5.0927305794598459;0.0095694033573220597;0;0;0;0;0
5.1013769811227663;0.0098078528040323049;0;0;0;0;0
5.1100233827856858;0.0099518472667219655;0;0;0;0;0
5.1186697844486062;0.01;0;0;0;0;0
5.1273161861115257;0.0099518472667219724;0;0;0;0;0
5.1359625877744461;0.0098078528040323066;0;0;0;0;0
5.1446089894373657;0.0095694033573221048;0;0;0;0;0
5.1532553911002861;0.0092387953251128734;0;0;0;0;0
5.1619017927632056;0.0088192126434835771;0;0;0;0;0
5.170548194426126;0.0083146961230254664;0;0;0;0;0
5.1791945960890455;0.0077301045336274103;0;0;0;0;0
5.1878409977519659;0.0070710678118654485;0;0;0;0;0
5.1964873994148855;0.0063439328416365097;0;0;0;0;0
5.2051338010778059;0.0055557023301959956;0;0;0;0;0
5.2137802027407254;0.0047139673682599819;0;0;0;0;0
5.2224266044036449;0.0038268343236510052;0;0;0;0;0
5.2310730060665653;0.0029028467725446361;0;0;0;0;0
5.2397194077294849;0.001950903220161334;0;0;0;0;0
5.2483658093924053;0.00098017140329562579;0;0;0;0;0
5.2570122110553248;5.8795425971804725e-17;0;0;0;0;0
5.2656586127182452;-0.00098017140329557961;0;0;0;0;0
5.2743050143811647;-0.0019509032201612184;0;0;0;0;0
5.2829514160440851;-0.0029028467725445918;0;0;0;0;0
5.2915978177070047;-0.0038268343236508313;0;0;0;0;0
5.3002442193699251;-0.0047139673682599411;0;0;0;0;0
5.3088906210328446;-0.0055557023301959566;0;0;0;0;0
5.317537022695765;-0.0063439328416364741;0;0;0;0;0
5.3261834243586845;-0.0070710678118654146;0;0;0;0;0
5.3348298260216049;-0.0077301045336273808;0;0;0;0;0
5.3434762276845245;-0.0083146961230254404;0;0;0;0;0
5.3521226293474449;-0.0088192126434835545;0;0;0;0;0
5.3607690310103644;-0.0092387953251128561;0;0;0;0;0
5.3694154326732848;-0.0095694033573220892;0;0;0;0;0
5.3780618343362043;-0.0098078528040322979;0;0;0;0;0
5.3867082359991239;-0.009951847266721962;0;0;0;0;0
5.3953546376620443;-0.01;0;0;0;0;0
5.4040010393249638;-0.0099518472667219776;0;0;0;0;0
5.4126474409878842;-0.0098078528040323153;0;0;0;0;0
5.4212938426508037;-0.0095694033573221135;0;0;0;0;0
5.4299402443137241;-0.0092387953251128613;0;0;0;0;0
5.4385866459766437;-0.0088192126434835944;0;0;0;0;0
5.4472330476395641;-0.0083146961230254474;0;0;0;0;0
5.4558794493024836;-0.0077301045336273886;0;0;0;0;0
5.464525850965404;-0.0070710678118654736;0;0;0;0;0
5.4731722526283235;-0.0063439328416364828;0;0;0;0;0
5.4818186542912439;-0.0055557023301960259;0;0;0;0;0
5.4904650559541635;-0.0047139673682600148;0;0;0;0;0
5.4991114576170839;-0.003826834323650908;0;0;0;0;0
5.5077578592800034;-0.0029028467725446716;0;0;0;0;0
5.5164042609429238;-0.0019509032201612999;0;0;0;0;0
5.5250506626058433;-0.00098017140329566244;0;0;0;0;0
5.5336970642687628;-9.5547209558957079e-17;0;0;0;0;0
5.5423434659316833;0.00098017140329554296;0;0;0;0;0
5.5509898675946028;0.0019509032201611824;0;0;0;0;0
5.5596362692575232;0.0029028467725446244;0;0;0;0;0
5.5682826709204427;0.003826834323650797;0;0;0;0;0
5.5769290725833631;0.0047139673682599715;0;0;0;0;0
5.5855754742462826;0.0055557023301959852;0;0;0;0;0
5.5942218759092031;0.0063439328416364446;0;0;0;0;0
5.6028682775721226;0.0070710678118654389;0;0;0;0;0
5.611514679235043;0.0077301045336273582;0;0;0;0;0
5.6201610808979625;0.0083146961230254196;0;0;0;0;0
5.6288074825608829;0.0088192126434835389;0;0;0;0;0
5.6374538842238024;0.0092387953251128439;0;0;0;0;0
5.6461002858867229;0.0095694033573220996;0;0;0;0;0
5.6547466875496424;0.0098078528040323049;0;0;0;0;0
5.6633930892125628;0.0099518472667219655;0;0;0;0;0
5.6720394908754823;0.01;0;0;0;0;0
5.6806858925384027;0.0099518472667219655;0;0;0;0;0
5.6893322942013222;0.0098078528040323083;0;0;0;0;0
5.6979786958642418;0.0095694033573221048;0;0;0;0;0
5.7066250975271622;0.0092387953251129029;0;0;0;0;0
5.7152714991900817;0.0088192126434836118;0;0;0;0;0
5.7239179008530021;0.0083146961230254682;0;0;0;0;0
5.7325643025159216;0.007730104533627412;0;0;0;0;0
5.7412107041788421;0.0070710678118654493;0;0;0;0;0
5.7498571058417616;0.0063439328416364576;0;0;0;0;0
5.758503507504682;0.0055557023301960563;0;0;0;0;0
5.7671499091676015;0.0047139673682600469;0;0;0;0;0
5.7757963108305219;0.0038268343236508764;0;0;0;0;0
5.7844427124934414;0.0029028467725446391;0;0;0;0;0
5.7930891141563619;0.0019509032201613361;0;0;0;0;0
5.8017355158192814;0.00098017140329569909;0;0;0;0;0
5.8103819174822018;-9.8095540059105926e-18;0;0;0;0;0
5.8190283191451213;-0.00098017140329557701;0;0;0;0;0
5.8276747208080417;-0.0019509032201613554;0;0;0;0;0
5.8363211224709612;-0.0029028467725445211;0;0;0;0;0
5.8449675241338817;-0.0038268343236508946;0;0;0;0;0
5.8536139257968012;-0.0047139673682599385;0;0;0;0;0
5.8622603274597207;-0.0055557023301959539;0;0;0;0;0
5.8709067291226411;-0.0063439328416364715;0;0;0;0;0
5.8795531307855606;-0.0070710678118654641;0;0;0;0;0
5.888199532448481;-0.0077301045336273348;0;0;0;0;0
5.8968459341114006;-0.0083146961230254005;0;0;0;0;0
5.905492335774321;-0.0088192126434835545;0;0;0;0;0
5.9141387374372405;-0.0092387953251128561;0;0;0;0;0
5.9227851391001609;-0.0095694033573220684;0;0;0;0;0
5.9314315407630804;-0.009807852804032284;0;0;0;0;0
5.9400779424260008;-0.0099518472667219689;0;0;0;0;0
5.9487243440889204;-0.01;0;0;0;0;0
5.9573707457518408;-0.009951847266721962;0;0;0;0;0
5.9660171474147603;-0.0098078528040323291;0;0;0;0;0
5.9746635490776807;-0.0095694033573220944;0;0;0;0;0
5.9833099507406002;-0.009238795325112889;0;0;0;0;0
5.9919563524035206;-0.0088192126434835285;0;0;0;0;0
6.0006027540664402;-0.0083146961230254491;0;0;0;0;0
6.0092491557293597;-0.0077301045336273903;0;0;0;0;0
6.0178955573922801;-0.0070710678118655257;0;0;0;0;0
6.0265419590551996;-0.0063439328416365409;0;0;0;0;0
6.03518836071812;-0.0055557023301960277;0;0;0;0;0
6.0438347623810396;-0.0047139673682600174;0;0;0;0;0
6.05248116404396;-0.0038268343236509757;0;0;0;0;0
6.0611275657068795;-0.0029028467725447414;0;0;0;0;0
6.0697739673697999;-0.0019509032201613025;0;0;0;0;0
6.0784203690327194;-0.00098017140329566483;0;0;0;0;0
6.0870667706956398;4.4112043994768248e-17;0;0;0;0;0
6.0957131723585594;0.00098017140329561127;0;0;0;0;0
6.1043595740214798;0.0019509032201612498;0;0;0;0;0
6.1130059756843993;0.0029028467725445545;0;0;0;0;0
6.1216523773473197;0.0038268343236509262;0;0;0;0;0
6.1302987790102392;0.0047139673682599697;0;0;0;0;0
6.1389451806731596;0.0055557023301959834;0;0;0;0;0
6.1475915823360792;0.0063439328416363882;0;0;0;0;0
6.1562379839989996;0.0070710678118654866;0;0;0;0;0
6.1648843856619191;0.0077301045336273556;0;0;0;0;0
6.1735307873248386;0.0083146961230254196;0;0;0;0;0
6.182177188987759;0.0088192126434835042;0;0;0;0;0
6.1908235906506786;0.0092387953251128144;0;0;0;0;0
6.199469992313599;0.0095694033573220788;0;0;0;0;0
6.2081163939765185;0.0098078528040322892;0;0;0;0;0
6.2167627956394389;0.0099518472667219724;0;0;0;0;0
6.2254091973023584;0.01;0;0;0;0;0
6.2340555989652788;0.0099518472667219741;0;0;0;0;0
6.2427020006281984;0.0098078528040323222;0;0;0;0;0
6.2513484022911188;0.009569403357322084;0;0;0;0;0
6.2599948039540383;0.0092387953251128769;0;0;0;0;0
6.2686412056169587;0.0088192126434835788;0;0;0;0;0
6.2772876072798782;0.0083146961230255098;0;0;0;0;0
6.2859340089427986;0.0077301045336273678;0;0;0;0;0
6.2945804106057182;0.0070710678118655014;0;0;0;0;0
6.3032268122686386;0.0063439328416364038;0;0;0;0;0
6.3118732139315581;0.005555702330196117;0;0;0;0;0
6.3205196155944785;0.0047139673682599862;0;0;0;0;0
6.329166017257398;0.003826834323650944;0;0;0;0;0
6.3378124189203175;0.0029028467725447089;0;0;0;0;0
6.346458820583238;0.0019509032201612689;0;0;0;0;0
6.3551052222461575;0.00098017140329563078;0;0;0;0;0
6.3637516239090779;6.3694013168394139e-17;0;0;0;0;0
6.3723980255719974;-0.00098017140329550393;0;0;0;0;0
6.3810444272349178;-0.0019509032201612834;0;0;0;0;0
6.3896908288978373;-0.0029028467725445875;0;0;0;0;0
6.3983372305607578;-0.0038268343236508265;0;0;0;0;0
6.4069836322236773;-0.0047139673682598743;0;0;0;0;0
6.4156300338865977;-0.0055557023301960121;0;0;0;0;0
6.4242764355495172;-0.0063439328416364151;0;0;0;0;0
6.4329228372124376;-0.0070710678118655118;0;0;0;0;0
6.4415692388753572;-0.0077301045336273782;0;0;0;0;0
6.4502156405382776;-0.0083146961230254387;0;0;0;0;0
6.4588620422011971;-0.0088192126434835198;0;0;0;0;0
6.4675084438641175;-0.0092387953251128821;0;0;0;0;0
6.476154845527037;-0.0095694033573220892;0;0;0;0;0
6.4848012471899565;-0.0098078528040322962;0;0;0;0;0
6.493447648852877;-0.009951847266721962;0;0;0;0;0
6.5020940505157965;-0.01;0;0;0;0;0
6.5107404521787169;-0.0099518472667219707;0;0;0;0;0
6.5193868538416364;-0.0098078528040323153;0;0;0;0;0
6.5280332555045568;-0.0095694033573221152;0;0;0;0;0
6.5366796571674763;-0.0092387953251129168;0;0;0;0;0
6.5453260588303968;-0.0088192126434835632;0;0;0;0;0
6.5539724604933163;-0.008314696123025489;0;0;0;0;0
6.5626188621562367;-0.007730104533627347;0;0;0;0;0
6.5712652638191562;-0.0070710678118654771;0;0;0;0;0
6.5799116654820766;-0.0063439328416364871;0;0;0;0;0
6.5885580671449961;-0.0055557023301960893;0;0;0;0;0
6.5972044688079166;-0.0047139673682599567;0;0;0;0;0
6.6058508704708361;-0.0038268343236509124;0;0;0;0;0
6.6144972721337565;-0.002902846772544676;0;0;0;0;0
6.623143673796676;-0.0019509032201613747;0;0;0;0;0
6.6317900754595964;-0.00098017140329559652;0;0;0;0;0
6.6404364771225159;-2.9391523179536474e-17;0;0;0;0;0
6.6490828787854355;0.00098017140329553797;0;0;0;0;0
6.6577292804483559;0.0019509032201611776;0;0;0;0;0
6.6663756821112754;0.0029028467725444838;0;0;0;0;0
6.6750220837741958;0.0038268343236508577;0;0;0;0;0
6.6836684854371153;0.0047139673682599047;0;0;0;0;0
6.6923148871000357;0.0055557023301960398;0;0;0;0;0
6.7009612887629553;0.006343932841636442;0;0;0;0;0
6.7096076904258757;0.0070710678118654363;0;0;0;0;0
6.7182540920887952;0.0077301045336273088;0;0;0;0;0
6.7269004937517156;0.0083146961230254578;0;0;0;0;0
6.7355468954146351;0.0088192126434835354;0;0;0;0;0
6.7441932970775555;0.0092387953251128405;0;0;0;0;0
6.7528396987404751;0.009569403357322058;0;0;0;0;0
6.7614861004033955;0.0098078528040323031;0;0;0;0;0
6.770132502066315;0.0099518472667219655;0;0;0;0;0
6.7787789037292354;0.01;0;0;0;0;0
6.7874253053921549;0.0099518472667219672;0;0;0;0;0
6.7960717070550754;0.0098078528040323083;0;0;0;0;0
6.8047181087179949;0.0095694033573221048;0;0;0;0;0
6.8133645103809144;0.0092387953251129046;0;0;0;0;0
6.8220109120438348;0.0088192126434835476;0;0;0;0;0
6.8306573137067543;0.0083146961230254699;0;0;0;0;0
6.8393037153696747;0.0077301045336274146;0;0;0;0;0
6.8479501170325943;0.0070710678118655534;0;0;0;0;0
6.8565965186955147;0.0063439328416364602;0;0;0;0;0
6.8652429203584342;0.0055557023301960606;0;0;0;0;0
6.8738893220213546;0.0047139673682600513;0;0;0;0;0
6.8825357236842741;0.0038268343236510121;0;0;0;0;0
6.8911821253471945;0.0029028467725446434;0;0;0;0;0
6.8998285270101141;0.0019509032201613411;0;0;0;0;0
6.9084749286730345;0.00098017140329556248;0;0;0;0;0
6.917121330335954;-4.9109668093211799e-18;0;0;0;0;0
6.9257677319988744;-0.00098017140329557224;0;0;0;0;0
6.9344141336617939;-0.0019509032201612112;0;0;0;0;0
6.9430605353247143;-0.002902846772544653;0;0;0;0;0
6.9517069369876339;-0.0038268343236508903;0;0;0;0;0
6.9603533386505534;-0.004713967368259935;0;0;0;0;0
6.9689997403134738;-0.0055557023301959505;0;0;0;0;0
6.9776461419763933;-0.0063439328416363587;0;0;0;0;0
6.9862925436393137;-0.0070710678118654606;0;0;0;0;0
6.9949389453022333;-0.0077301045336273314;0;0;0;0;0
7.0035853469651537;-0.0083146961230253971;0;0;0;0;0
7.0122317486280732;-0.0088192126434834851;0;0;0;0;0
7.0208781502909936;-0.0092387953251128543;0;0;0;0;0
7.0295245519539131;-0.0095694033573220667;0;0;0;0;0
7.0381709536168335;-0.0098078528040323101;0;0;0;0;0
7.0468173552797531;-0.0099518472667219689;0;0;0;0;0
7.0554637569426735;-0.01;0;0;0;0;0
7.064110158605593;-0.0099518472667219776;0;0;0;0;0
7.0727565602685134;-0.0098078528040323014;0;0;0;0;0
7.0814029619314329;-0.0095694033573220962;0;0;0;0;0
7.0900493635943533;-0.0092387953251128925;0;0;0;0;0
7.0986957652572729;-0.0088192126434835979;0;0;0;0;0
7.1073421669201933;-0.0083146961230254508;0;0;0;0;0
7.1159885685831128;-0.0077301045336273938;0;0;0;0;0
7.1246349702460323;-0.0070710678118655291;0;0;0;0;0
7.1332813719089527;-0.0063439328416364342;0;0;0;0;0
7.1419277735718723;-0.0055557023301961508;0;0;0;0;0
7.1505741752347927;-0.0047139673682600209;0;0;0;0;0
7.1592205768977122;-0.0038268343236509805;0;0;0;0;0
7.1678669785606326;-0.0029028467725446105;0;0;0;0;0
7.1765133802235521;-0.0019509032201613073;0;0;0;0;0
7.1851597818864725;-0.00098017140329566981;0;0;0;0;0
7.1938061835493921;-1.0289509035384121e-16;0;0;0;0;0
7.2024525852123125;0.00098017140329560628;0;0;0;0;0
7.211098986875232;0.0019509032201612448;0;0;0;0;0
7.2197453885381524;0.0029028467725445493;0;0;0;0;0
7.2283917902010719;0.0038268343236507901;0;0;0;0;0
7.2370381918639923;0.0047139673682599645;0;0;0;0;0
7.2456845935269119;0.0055557023301959782;0;0;0;0;0
7.2543309951898323;0.0063439328416364949;0;0;0;0;0
7.2629773968527518;0.007071067811865484;0;0;0;0;0
7.2716237985156722;0.0077301045336273522;0;0;0;0;0
7.2802702001785917;0.0083146961230254161;0;0;0;0;0
7.2889166018415112;0.0088192126434835007;0;0;0;0;0
7.2975630035044317;0.0092387953251128682;0;0;0;0;0
7.3062094051673512;0.0095694033573220771;0;0;0;0;0
7.3148558068302716;0.0098078528040322892;0;0;0;0;0
7.3235022084931911;0.0099518472667219568;0;0;0;0;0
7.3321486101561115;0.01;0;0;0;0;0
7.340795011819031;0.0099518472667219741;0;0;0;0;0
7.3494414134819515;0.0098078528040323222;0;0;0;0;0
7.358087815144871;0.0095694033573221274;0;0;0;0;0
7.3667342168077914;0.0092387953251128786;0;0;0;0;0
7.3753806184707109;0.0088192126434835823;0;0;0;0;0
7.3840270201336313;0.0083146961230254317;0;0;0;0;0
7.3926734217965508;0.0077301045336273713;0;0;0;0;0
7.4013198234594713;0.0070710678118655048;0;0;0;0;0
7.4099662251223908;0.0063439328416365175;0;0;0;0;0
7.4186126267853112;0.0055557023301960034;0;0;0;0;0
7.4272590284482307;0.0047139673682599905;0;0;0;0;0
7.4359054301111502;0.0038268343236509488;0;0;0;0;0
7.4445518317740706;0.0029028467725447137;0;0;0;0;0
7.4531982334369902;0.0019509032201614129;0;0;0;0;0
7.4618446350999106;0.00098017140329563555;0;0;0;0;0
7.4704910367628301;6.8592600364983554e-17;0;0;0;0;0
7.4791374384257505;-0.00098017140329564054;0;0;0;0;0
7.48778384008867;-0.001950903220161139;0;0;0;0;0
7.4964302417515905;-0.0029028467725445823;0;0;0;0;0
7.50507664341451;-0.0038268343236508217;0;0;0;0;0
7.5137230450774304;-0.0047139673682599957;0;0;0;0;0
7.5223694467403499;-0.0055557023301960077;0;0;0;0;0
7.5310158484032703;-0.0063439328416364116;0;0;0;0;0
7.5396622500661898;-0.0070710678118654086;0;0;0;0;0
7.5483086517291103;-0.0077301045336273747;0;0;0;0;0
7.5569550533920298;-0.0083146961230254352;0;0;0;0;0
7.5656014550549502;-0.0088192126434835181;0;0;0;0;0
7.5742478567178697;-0.0092387953251128266;0;0;0;0;0
7.5828942583807901;-0.0095694033573220875;0;0;0;0;0
7.5915406600437096;-0.0098078528040322962;0;0;0;0;0
7.6001870617066292;-0.0099518472667219603;0;0;0;0;0
7.6088334633695496;-0.01;0;0;0;0;0
7.6174798650324691;-0.0099518472667219846;0;0;0;0;0
7.6261262666953895;-0.0098078528040323153;0;0;0;0;0
7.634772668358309;-0.009569403357322117;0;0;0;0;0
7.6434190700212294;-0.0092387953251128647;0;0;0;0;0
7.652065471684149;-0.0088192126434835667;0;0;0;0;0
7.6607118733470694;-0.0083146961230254925;0;0;0;0;0
7.6693582750099889;-0.0077301045336274398;0;0;0;0;0
7.6780046766729093;-0.0070710678118654805;0;0;0;0;0
7.6866510783358288;-0.0063439328416364906;0;0;0;0;0
7.6952974799987492;-0.0055557023301960927;0;0;0;0;0
7.7039438816616688;-0.004713967368260086;0;0;0;0;0
7.7125902833245892;-0.0038268343236509167;0;0;0;0;0
7.7212366849875087;-0.0029028467725446812;0;0;0;0;0
7.7298830866504291;-0.0019509032201612401;0;0;0;0;0
7.7385294883133486;-0.00098017140329560151;0;0;0;0;0
7.747175889976269;-3.4290110376125888e-17;0;0;0;0;0
7.7558222916391886;0.0009801714032955332;0;0;0;0;0
7.7644686933021081;0.0019509032201611729;0;0;0;0;0
7.7731150949650285;0.0029028467725446152;0;0;0;0;0
7.781761496627948;0.0038268343236508534;0;0;0;0;0
7.7904078982908684;0.0047139673682599003;0;0;0;0;0
7.799054299953788;0.0055557023301959175;0;0;0;0;0
7.8077007016167084;0.0063439328416364385;0;0;0;0;0
7.8163471032796279;0.0070710678118654328;0;0;0;0;0
7.8249935049425483;0.0077301045336273964;0;0;0;0;0
7.8336399066054678;0.0083146961230253745;0;0;0;0;0
7.8422863082683882;0.0088192126434835337;0;0;0;0;0
7.8509327099313078;0.0092387953251128387;0;0;0;0;0
7.8595791115942282;0.0095694033573220979;0;0;0;0;0
7.8682255132571477;0.0098078528040323031;0;0;0;0;0
7.8768719149200681;0.0099518472667219637;0;0;0;0;0
7.8855183165829876;0.01;0;0;0;0;0
7.894164718245908;0.0099518472667219672;0;0;0;0;0
7.9028111199088276;0.0098078528040323083;0;0;0;0;0
7.9114575215717471;0.0095694033573221066;0;0;0;0;0
7.9201039232346675;0.0092387953251129064;0;0;0;0;0
7.928750324897587;0.008819212643483617;0;0;0;0;0
7.9373967265605074;0.0083146961230254734;0;0;0;0;0
7.946043128223427;0.0077301045336274181;0;0;0;0;0
7.9546895298863474;0.0070710678118654563;0;0;0;0;0
7.9633359315492669;0.0063439328416365738;0;0;0;0;0
7.9719823332121873;0.0055557023301960641;0;0;0;0;0
7.9806287348751068;0.0047139673682600556;0;0;0;0;0
7.9892751365380272;0.0038268343236508851;0;0;0;0;0
7.9979215382009468;0.0029028467725446478;0;0;0;0;0
8.0065679398638672;0.0019509032201613459;0;0;0;0;0
8.0152143415267876;0.00098017140329556725;0;0;0;0;0
8.0238607431897062;1.4209616753928826e-16;0;0;0;0;0
8.0325071448526266;-0.00098017140329556725;0;0;0;0;0
8.041153546515547;-0.0019509032201612065;0;0;0;0;0
8.0497999481784674;-0.0029028467725446482;0;0;0;0;0
8.0584463498413861;-0.0038268343236507541;0;0;0;0;0
8.0670927515043065;-0.0047139673682599307;0;0;0;0;0
8.0757391531672269;-0.005555702330196065;0;0;0;0;0
8.0843855548301455;-0.0063439328416363544;0;0;0;0;0
8.0930319564930659;-0.0070710678118654563;0;0;0;0;0
8.1016783581559864;-0.0077301045336273279;0;0;0;0;0
8.1103247598189068;-0.0083146961230254734;0;0;0;0;0
8.1189711614818254;-0.0088192126434834834;0;0;0;0;0
8.1276175631447458;-0.0092387953251128526;0;0;0;0;0
8.1362639648076662;-0.0095694033573220667;0;0;0;0;0
8.1449103664705866;-0.0098078528040323083;0;0;0;0;0
8.1535567681335053;-0.0099518472667219533;0;0;0;0;0
8.1622031697964257;-0.01;0;0;0;0;0
8.1708495714593461;-0.0099518472667219637;0;0;0;0;0
8.1794959731222665;-0.0098078528040323031;0;0;0;0;0
8.1881423747851851;-0.0095694033573221378;0;0;0;0;0
8.1967887764481056;-0.0092387953251128925;0;0;0;0;0
8.205435178111026;-0.0088192126434835337;0;0;0;0;0
8.2140815797739464;-0.0083146961230254543;0;0;0;0;0
8.222727981436865;-0.0077301045336273964;0;0;0;0;0
8.2313743830997854;-0.0070710678118655326;0;0;0;0;0
8.2400207847627058;-0.0063439328416364385;0;0;0;0;0
8.2486671864256245;-0.0055557023301961543;0;0;0;0;0
8.2573135880885449;-0.0047139673682600252;0;0;0;0;0
8.2659599897514653;-0.0038268343236509852;0;0;0;0;0
8.2746063914143857;-0.0029028467725446152;0;0;0;0;0
8.2832527930773043;-0.0019509032201614515;0;0;0;0;0
8.2918991947402247;-0.00098017140329567458;0;0;0;0;0
8.3005455964031452;3.4314869601589425e-17;0;0;0;0;0
8.3091919980660656;0.00098017140329560151;0;0;0;0;0
8.3178383997289842;0.0019509032201611006;0;0;0;0;0
8.3264848013919046;0.002902846772544545;0;0;0;0;0
8.335131203054825;0.0038268343236509171;0;0;0;0;0
8.3437776047177454;0.0047139673682599602;0;0;0;0;0
8.3524240063806641;0.0055557023301959756;0;0;0;0;0
8.3610704080435845;0.0063439328416363804;0;0;0;0;0
8.3697168097065049;0.0070710678118654805;0;0;0;0;0
8.3783632113694253;0.0077301045336274398;0;0;0;0;0
8.3870096130323439;0.0083146961230254144;0;0;0;0;0
8.3956560146952643;0.008819212643483499;0;0;0;0;0
8.4043024163581848;0.0092387953251128647;0;0;0;0;0
8.4129488180211034;0.0095694033573220337;0;0;0;0;0
8.4215952196840238;0.0098078528040322875;0;0;0;0;0
8.4302416213469442;0.0099518472667219707;0;0;0;0;0
8.4388880230098646;0.01;0;0;0;0;0
8.4475344246727833;0.009951847266721988;0;0;0;0;0
8.4561808263357037;0.0098078528040323239;0;0;0;0;0
8.4648272279986241;0.0095694033573220875;0;0;0;0;0
8.4734736296615445;0.0092387953251128804;0;0;0;0;0
8.4821200313244631;0.008819212643483584;0;0;0;0;0
8.4907664329873835;0.0083146961230255133;0;0;0;0;0
8.4994128346503039;0.0077301045336273747;0;0;0;0;0
8.5080592363132244;0.0070710678118654086;0;0;0;0;0
8.516705637976143;0.0063439328416365218;0;0;0;0;0
8.5253520396390634;0.0055557023301961266;0;0;0;0;0
8.5339984413019838;0.0047139673682599957;0;0;0;0;0
8.5426448429649025;0.0038268343236510845;0;0;0;0;0
8.5512912446278229;0.0029028467725447185;0;0;0;0;0
8.5599376462907433;0.0019509032201612787;0;0;0;0;0
8.5685840479536637;0.00098017140329564054;0;0;0;0;0
8.5772304496165823;7.3491187561572956e-17;0;0;0;0;0
8.5858768512795027;-0.00098017140329549417;0;0;0;0;0
8.5945232529424231;-0.0019509032201612737;0;0;0;0;0
8.6031696546053436;-0.0029028467725445779;0;0;0;0;0
8.6118160562682622;-0.0038268343236508174;0;0;0;0;0
8.6204624579311826;-0.0047139673682598656;0;0;0;0;0
8.629108859594103;-0.0055557023301960034;0;0;0;0;0
8.6377552612570234;-0.0063439328416365175;0;0;0;0;0
8.6464016629199421;-0.0070710678118654051;0;0;0;0;0
8.6550480645828625;-0.007730104533627281;0;0;0;0;0
8.6636944662457829;-0.0083146961230254317;0;0;0;0;0
8.6723408679087033;-0.0088192126434835823;0;0;0;0;0
8.6809872695716219;-0.0092387953251128248;0;0;0;0;0
8.6896336712345423;-0.0095694033573220857;0;0;0;0;0
8.6982800728974627;-0.0098078528040322945;0;0;0;0;0
8.7069264745603814;-0.0099518472667219603;0;0;0;0;0
8.7155728762233018;-0.01;0;0;0;0;0
8.7242192778862222;-0.0099518472667219724;0;0;0;0;0
8.7328656795491426;-0.009807852804032317;0;0;0;0;0
8.7415120812120612;-0.0095694033573221187;0;0;0;0;0
8.7501584828749817;-0.009238795325112922;0;0;0;0;0
8.7588048845379021;-0.0088192126434835684;0;0;0;0;0
8.7674512862008225;-0.0083146961230254161;0;0;0;0;0
8.7760976878637411;-0.0077301045336274432;0;0;0;0;0
8.7847440895266615;-0.007071067811865484;0;0;0;0;0
8.7933904911895819;-0.0063439328416364949;0;0;0;0;0
8.8020368928525023;-0.0055557023301959782;0;0;0;0;0
8.810683294515421;-0.0047139673682600903;0;0;0;0;0
8.8193296961783414;-0.0038268343236509219;0;0;0;0;0
8.8279760978412618;-0.0029028467725446855;0;0;0;0;0
8.8366224995041822;-0.0019509032201612448;0;0;0;0;0
8.8452689011671009;-0.00098017140329574766;0;0;0;0;0
8.8539153028300213;-3.9188697572715302e-17;0;0;0;0;0
8.8625617044929417;0.00098017140329566981;0;0;0;0;0
8.8712081061558603;0.0019509032201611679;0;0;0;0;0
8.8798545078187807;0.0029028467725444747;0;0;0;0;0
8.8885009094817011;0.0038268343236508491;0;0;0;0;0
8.8971473111446215;0.0047139673682600209;0;0;0;0;0
8.9057937128075402;0.0055557023301959141;0;0;0;0;0
8.9144401144704606;0.0063439328416364342;0;0;0;0;0
8.923086516133381;0.0070710678118654285;0;0;0;0;0
8.9317329177963014;0.0077301045336273938;0;0;0;0;0
8.94037931945922;0.0083146961230253728;0;0;0;0;0
8.9490257211221405;0.008819212643483532;0;0;0;0;0
8.9576721227850609;0.009238795325112837;0;0;0;0;0
8.9663185244479813;0.0095694033573220962;0;0;0;0;0
8.9749649261108999;0.0098078528040322754;0;0;0;0;0
8.9836113277738203;0.0099518472667219637;0;0;0;0;0
8.9922577294367407;0.01;0;0;0;0;0
9.0009041310996611;0.0099518472667219689;0;0;0;0;0
9.0095505327625798;0.0098078528040323378;0;0;0;0;0
9.0181969344255002;0.0095694033573221083;0;0;0;0;0
9.0268433360884206;0.0092387953251128543;0;0;0;0;0
9.0354897377513392;0.0088192126434836187;0;0;0;0;0
9.0441361394142596;0.0083146961230254751;0;0;0;0;0
9.0527825410771801;0.0077301045336274216;0;0;0;0;0
9.0614289427401005;0.0070710678118654606;0;0;0;0;0
9.0700753444030191;0.0063439328416365782;0;0;0;0;0
9.0787217460659395;0.0055557023301960684;0;0;0;0;0
9.0873681477288599;0.0047139673682600599;0;0;0;0;0
9.0960145493917803;0.0038268343236508903;0;0;0;0;0
9.104660951054699;0.0029028467725447887;0;0;0;0;0
9.1133073527176194;0.0019509032201613504;0;0;0;0;0
9.1219537543805398;0.00098017140329557224;0;0;0;0;0
9.1306001560434602;4.8862075838576457e-18;0;0;0;0;0
9.1392465577063788;-0.0009801714032954211;0;0;0;0;0
9.1478929593692992;-0.0019509032201612017;0;0;0;0;0
9.1565393610322197;-0.0029028467725446434;0;0;0;0;0
9.1651857626951401;-0.0038268343236508807;0;0;0;0;0
9.1738321643580587;-0.0047139673682599264;0;0;0;0;0
9.1824785660209791;-0.0055557023301959418;0;0;0;0;0
9.1911249676838995;-0.0063439328416364602;0;0;0;0;0
9.1997713693468182;-0.007071067811865353;0;0;0;0;0
9.2084177710097386;-0.0077301045336273244;0;0;0;0;0
9.217064172672659;-0.0083146961230253918;0;0;0;0;0
9.2257105743355794;-0.0088192126434835476;0;0;0;0;0
9.234356975998498;-0.0092387953251127971;0;0;0;0;0
9.2430033776614184;-0.0095694033573220632;0;0;0;0;0
9.2516497793243389;-0.0098078528040323083;0;0;0;0;0
9.2602961809872593;-0.0099518472667219672;0;0;0;0;0
9.2689425826501779;-0.01;0;0;0;0;0
9.2775889843130983;-0.0099518472667219776;0;0;0;0;0
9.2862353859760187;-0.0098078528040323031;0;0;0;0;0
9.2948817876389391;-0.0095694033573220979;0;0;0;0;0
9.3035281893018578;-0.009238795325112896;0;0;0;0;0
9.3121745909647782;-0.0088192126434836031;0;0;0;0;0
9.3208209926276986;-0.0083146961230254578;0;0;0;0;0
9.3294673942906172;-0.0077301045336274901;0;0;0;0;0
9.3381137959535376;-0.0070710678118655361;0;0;0;0;0
9.346760197616458;-0.0063439328416365513;0;0;0;0;0
9.3554065992793785;-0.0055557023301960398;0;0;0;0;0
9.3640530009422971;-0.0047139673682601553;0;0;0;0;0
9.3726994026052175;-0.0038268343236509896;0;0;0;0;0
9.3813458042681379;-0.00290284677254462;0;0;0;0;0
9.3899922059310583;-0.0019509032201613168;0;0;0;0;0
9.398638607593977;-0.00098017140329567957;0;0;0;0;0
9.4072850092568974;-1.1269226474702002e-16;0;0;0;0;0
9.4159314109198178;0.00098017140329559652;0;0;0;0;0
9.4245778125827382;0.0019509032201612353;0;0;0;0;0
9.4332242142456568;0.0029028467725445402;0;0;0;0;0
9.4418706159085772;0.0038268343236507814;0;0;0;0;0
9.4505170175714976;0.0047139673682599567;0;0;0;0;0
9.4591634192344181;0.0055557023301960893;0;0;0;0;0
9.4678098208973367;0.006343932841636377;0;0;0;0;0
9.4764562225602571;0.0070710678118654771;0;0;0;0;0
9.4851026242231775;0.007730104533627347;0;0;0;0;0
9.4937490258860961;0.0083146961230253311;0;0;0;0;0
9.5023954275490166;0.0088192126434834955;0;0;0;0;0
9.511041829211937;0.009238795325112863;0;0;0;0;0
9.5196882308748574;0.0095694033573220736;0;0;0;0;0
9.528334632537776;0.0098078528040322875;0;0;0;0;0
9.5369810342006964;0.0099518472667219568;0;0;0;0;0
9.5456274358636168;0.01;0;0;0;0;0
9.5542738375265372;0.009951847266721962;0;0;0;0;0
9.5629202391894559;0.0098078528040323239;0;0;0;0;0
9.5715666408523763;0.0095694033573221291;0;0;0;0;0
9.5802130425152967;0.0092387953251128821;0;0;0;0;0
9.5888594441782171;0.0088192126434835198;0;0;0;0;0
9.5975058458411358;0.0083146961230255167;0;0;0;0;0
9.6061522475040562;0.0077301045336273782;0;0;0;0;0
9.6147986491669766;0.0070710678118655118;0;0;0;0;0
9.623445050829897;0.0063439328416364151;0;0;0;0;0
9.6320914524928156;0.0055557023301961292;0;0;0;0;0
9.640737854155736;0.0047139673682599992;0;0;0;0;0
9.6493842558186564;0.0038268343236509579;0;0;0;0;0
9.6580306574815751;0.0029028467725447232;0;0;0;0;0
9.6666770591444955;0.0019509032201614227;0;0;0;0;0
9.6753234608074159;0.00098017140329564531;0;0;0;0;0
9.6839698624703363;-6.371877239385767e-17;0;0;0;0;0
9.6926162641332549;-0.0009801714032954894;0;0;0;0;0
9.7012626657961754;-0.0019509032201611295;0;0;0;0;0
9.7099090674590958;-0.0029028467725445727;0;0;0;0;0
9.7185554691220162;-0.003826834323650944;0;0;0;0;0
9.7272018707849348;-0.0047139673682598613;0;0;0;0;0
9.7358482724478552;-0.0055557023301959999;0;0;0;0;0
9.7444946741107756;-0.0063439328416364038;0;0;0;0;0
9.753141075773696;-0.0070710678118655014;0;0;0;0;0
9.7617874774366147;-0.0077301045336272776;0;0;0;0;0
