#Time;LinearAccX;LinearAccY;LinearAccZ;AngularAccX;AngularAccY;AngularAccZ
0;0;0;0;0;0;0
0.0063608306317117459;0.00098017140329560606;0;0;0;0;0
0.012721661263423492;0.0019509032201612826;0;0;0;0;0
0.019082491895135237;0.0029028467725446235;0;0;0;0;0
0.025443322526846984;0.0038268343236508981;0;0;0;0;0
0.03180415315855873;0.0047139673682599767;0;0;0;0;0
0.038164983790270474;0.0055557023301960216;0;0;0;0;0
0.044525814421982224;0.006343932841636455;0;0;0;0;0
0.050886645053693967;0.0070710678118654745;0;0;0;0;0
0.05724747568540571;0.0077301045336273687;0;0;0;0;0
0.063608306317117461;0.0083146961230254526;0;0;0;0;0
0.069969136948829211;0.0088192126434835511;0;0;0;0;0
0.076329967580540947;0.0092387953251128682;0;0;0;0;0
0.082690798212252697;0.0095694033573220892;0;0;0;0;0
0.089051628843964448;0.0098078528040323049;0;0;0;0;0
0.095412459475676184;0.0099518472667219689;0;0;0;0;0
0.10177329010738793;0.01;0;0;0;0;0
0.10813412073909968;0.0099518472667219689;0;0;0;0;0
0.11449495137081142;0.0098078528040323049;0;0;0;0;0
0.12085578200252317;0.0095694033573220892;0;0;0;0;0
0.12721661263423492;0.0092387953251128682;0;0;0;0;0
0.13357744326594667;0.0088192126434835511;0;0;0;0;0
0.13993827389765842;0.0083146961230254508;0;0;0;0;0
0.14629910452937014;0.0077301045336273713;0;0;0;0;0
0.15265993516108189;0.0070710678118654762;0;0;0;0;0
0.15902076579279364;0.006343932841636455;0;0;0;0;0
0.16538159642450539;0.0055557023301960251;0;0;0;0;0
0.17174242705621715;0.0047139673682599784;0;0;0;0;0
0.1781032576879289;0.0038268343236508989;0;0;0;0;0
0.18446408831964062;0.0029028467725446278;0;0;0;0;0
0.19082491895135237;0.001950903220161286;0;0;0;0;0
0.19718574958306412;0.00098017140329560823;0;0;0;0;0
0.20354658021477587;1.2246467991473532e-18;0;0;0;0;0
0.20990741084648762;-0.00098017140329560585;0;0;0;0;0
0.21626824147819937;-0.0019509032201612837;0;0;0;0;0
0.22262907210991112;-0.0029028467725446257;0;0;0;0;0
0.22898990274162284;-0.0038268343236508924;0;0;0;0;0
0.23535073337333459;-0.0047139673682599723;0;0;0;0;0
0.24171156400504634;-0.0055557023301960199;0;0;0;0;0
0.24807239463675809;-0.0063439328416364524;0;0;0;0;0
0.25443322526846984;-0.0070710678118654745;0;0;0;0;0
0.26079405590018157;-0.0077301045336273669;0;0;0;0;0
0.26715488653189334;-0.0083146961230254526;0;0;0;0;0
0.27351571716360507;-0.0088192126434835493;0;0;0;0;0
0.27987654779531684;-0.0092387953251128682;0;0;0;0;0
0.28623737842702857;-0.0095694033573220892;0;0;0;0;0
0.29259820905874029;-0.0098078528040323031;0;0;0;0;0
0.29895903969045207;-0.0099518472667219689;0;0;0;0;0
0.30531987032216379;-0.01;0;0;0;0;0
0.31168070095387557;-0.0099518472667219689;0;0;0;0;0
0.31804153158558729;-0.0098078528040323049;0;0;0;0;0
0.32440236221729907;-0.0095694033573220892;0;0;0;0;0
0.33076319284901079;-0.00923879532511287;0;0;0;0;0
0.33712402348072251;-0.0088192126434835545;0;0;0;0;0
0.34348485411243429;-0.0083146961230254543;0;0;0;0;0
0.34984568474414601;-0.0077301045336273747;0;0;0;0;0
0.35620651537585779;-0.0070710678118654771;0;0;0;0;0
0.36256734600756951;-0.0063439328416364594;0;0;0;0;0
0.36892817663928124;-0.0055557023301960294;0;0;0;0;0
0.37528900727099301;-0.0047139673682599793;0;0;0;0;0
0.38164983790270474;-0.0038268343236509041;0;0;0;0;0
0.38801066853441651;-0.0029028467725446252;0;0;0;0;0
0.39437149916612824;-0.0019509032201612873;0;0;0;0;0
0.40073232979784001;-0.00098017140329560498;0;0;0;0;0
0.40709316042955174;-2.4492935982947064e-18;0;0;0;0;0
0.41345399106126346;0.00098017140329560021;0;0;0;0;0
0.41981482169297524;0.0019509032201612826;0;0;0;0;0
0.42617565232468696;0.00290284677254462;0;0;0;0;0
0.43253648295639874;0.0038268343236508994;0;0;0;0;0
0.43889731358811046;0.0047139673682599758;0;0;0;0;0
0.44525814421982224;0.0055557023301960251;0;0;0;0;0
0.45161897485153396;0.0063439328416364559;0;0;0;0;0
0.45797980548324568;0.0070710678118654667;0;0;0;0;0
0.46434063611495746;0.007730104533627366;0;0;0;0;0
0.47070146674666918;0.0083146961230254474;0;0;0;0;0
0.47706229737838096;0.0088192126434835493;0;0;0;0;0
0.48342312801009268;0.0092387953251128647;0;0;0;0;0
0.48978395864180441;0.0095694033573220857;0;0;0;0;0
0.49614478927351618;0.0098078528040323031;0;0;0;0;0
0.50250561990522791;0.0099518472667219689;0;0;0;0;0
0.50886645053693969;0.01;0;0;0;0;0
0.51522728116865146;0.0099518472667219689;0;0;0;0;0
0.52158811180036313;0.0098078528040323066;0;0;0;0;0
0.52794894243207491;0.0095694033573220927;0;0;0;0;0
0.53430977306378669;0.0092387953251128682;0;0;0;0;0
0.54067060369549835;0.0088192126434835597;0;0;0;0;0
0.54703143432721013;0.008314696123025456;0;0;0;0;0
0.55339226495892191;0.0077301045336273756;0;0;0;0;0
0.55975309559063369;0.007071067811865471;0;0;0;0;0
0.56611392622234535;0.0063439328416364672;0;0;0;0;0
0.57247475685405713;0.0055557023301960233;0;0;0;0;0
0.57883558748576891;0.0047139673682599801;0;0;0;0;0
0.58519641811748058;0.003826834323650905;0;0;0;0;0
0.59155724874919235;0.0029028467725446343;0;0;0;0;0
0.59791807938090413;0.0019509032201612798;0;0;0;0;0
0.60427891001261591;0.00098017140329560628;0;0;0;0;0
0.61063974064432758;3.6739403974420592e-18;0;0;0;0;0
0.61700057127603936;-0.00098017140329559891;0;0;0;0;0
0.62336140190775113;-0.0019509032201612899;0;0;0;0;0
0.6297222325394628;-0.0029028467725446105;0;0;0;0;0
0.63608306317117458;-0.0038268343236508985;0;0;0;0;0
0.64244389380288636;-0.0047139673682599741;0;0;0;0;0
0.64880472443459813;-0.0055557023301960173;0;0;0;0;0
0.6551655550663098;-0.0063439328416364472;0;0;0;0;0
0.66152638569802158;-0.0070710678118654658;0;0;0;0;0
0.66788721632973336;-0.0077301045336273713;0;0;0;0;0
0.67424804696144502;-0.0083146961230254422;0;0;0;0;0
0.6806088775931568;-0.0088192126434835493;0;0;0;0;0
0.68696970822486858;-0.0092387953251128647;0;0;0;0;0
0.69333053885658025;-0.0095694033573220857;0;0;0;0;0
0.69969136948829203;-0.0098078528040323014;0;0;0;0;0
0.7060522001200038;-0.0099518472667219689;0;0;0;0;0
0.71241303075171558;-0.01;0;0;0;0;0
0.71877386138342725;-0.0099518472667219689;0;0;0;0;0
0.72513469201513903;-0.0098078528040323066;0;0;0;0;0
0.7314955226468508;-0.0095694033573220875;0;0;0;0;0
0.73785635327856247;-0.0092387953251128734;0;0;0;0;0
0.74421718391027425;-0.0088192126434835511;0;0;0;0;0
0.75057801454198603;-0.008314696123025456;0;0;0;0;0
0.75693884517369781;-0.0077301045336273643;0;0;0;0;0
0.76329967580540947;-0.0070710678118654849;0;0;0;0;0
0.76966050643712125;-0.0063439328416364541;0;0;0;0;0
0.77602133706883303;-0.0055557023301960242;0;0;0;0;0
0.7823821677005447;-0.0047139673682599819;0;0;0;0;0
0.78874299833225647;-0.0038268343236509063;0;0;0;0;0
0.79510382896396825;-0.0029028467725446356;0;0;0;0;0
0.80146465959568003;-0.0019509032201612808;0;0;0;0;0
0.8078254902273917;-0.00098017140329562514;0;0;0;0;0
0.81418632085910347;-4.8985871965894128e-18;0;0;0;0;0
0.82054715149081525;0.00098017140329559782;0;0;0;0;0
0.82690798212252692;0.0019509032201612715;0;0;0;0;0
0.8332688127542387;0.0029028467725446096;0;0;0;0;0
0.83962964338595047;0.0038268343236508972;0;0;0;0;0
0.84599047401766225;0.0047139673682599732;0;0;0;0;0
0.85235130464937392;0.0055557023301960164;0;0;0;0;0
0.8587121352810857;0.0063439328416364472;0;0;0;0;0
0.86507296591279748;0.0070710678118654779;0;0;0;0;0
0.87143379654450914;0.0077301045336273591;0;0;0;0;0
0.87779462717622092;0.0083146961230254508;0;0;0;0;0
0.8841554578079327;0.0088192126434835476;0;0;0;0;0
0.89051628843964448;0.0092387953251128717;0;0;0;0;0
0.89687711907135614;0.0095694033573220857;0;0;0;0;0
0.90323794970306792;0.0098078528040323049;0;0;0;0;0
0.9095987803347797;0.0099518472667219689;0;0;0;0;0
0.91595961096649137;0.01;0;0;0;0;0
0.92232044159820314;0.0099518472667219689;0;0;0;0;0
0.92868127222991492;0.0098078528040323066;0;0;0;0;0
0.9350421028616267;0.0095694033573220892;0;0;0;0;0
0.94140293349333837;0.0092387953251128752;0;0;0;0;0
0.94776376412505015;0.0088192126434835528;0;0;0;0;0
0.95412459475676192;0.0083146961230254578;0;0;0;0;0
0.96048542538847359;0.0077301045336273765;0;0;0;0;0
0.96684625602018537;0.0070710678118654858;0;0;0;0;0
0.97320708665189715;0.006343932841636455;0;0;0;0;0
0.97956791728360881;0.0055557023301960398;0;0;0;0;0
0.98592874791532059;0.0047139673682599827;0;0;0;0;0
0.99228957854703237;0.0038268343236509072;0;0;0;0;0
0.99865040917874415;0.00290284677254462;0;0;0;0;0
1.0050112398104558;0.0019509032201612995;0;0;0;0;0
1.0113720704421676;0.00098017140329560888;0;0;0;0;0
1.0177329010738794;6.1232339957367663e-18;0;0;0;0;0
1.0240937317055911;-0.0009801714032956143;0;0;0;0;0
1.0304545623373029;-0.0019509032201612876;0;0;0;0;0
1.0368153929690145;-0.0029028467725446083;0;0;0;0;0
1.0431762236007263;-0.0038268343236508794;0;0;0;0;0
1.049537054232438;-0.0047139673682599567;0;0;0;0;0
1.0558978848641498;-0.0055557023301960008;0;0;0;0;0
1.0622587154958616;-0.0063439328416364594;0;0;0;0;0
1.0686195461275734;-0.0070710678118654771;0;0;0;0;0
1.0749803767592852;-0.0077301045336273687;0;0;0;0;0
1.0813412073909967;-0.00831469612302543;0;0;0;0;0
1.0877020380227085;-0.0088192126434835476;0;0;0;0;0
1.0940628686544203;-0.009238795325112863;0;0;0;0;0
1.100423699286132;-0.0095694033573220857;0;0;0;0;0
1.1067845299178438;-0.0098078528040323014;0;0;0;0;0
1.1131453605495556;-0.0099518472667219707;0;0;0;0;0
1.1195061911812674;-0.01;0;0;0;0;0
1.1258670218129789;-0.0099518472667219724;0;0;0;0;0
1.1322278524446907;-0.0098078528040323118;0;0;0;0;0
1.1385886830764025;-0.0095694033573220892;0;0;0;0;0
1.1449495137081143;-0.0092387953251128682;0;0;0;0;0
1.151310344339826;-0.0088192126434835528;0;0;0;0;0
1.1576711749715378;-0.0083146961230254578;0;0;0;0;0
1.1640320056032496;-0.0077301045336273782;0;0;0;0;0
1.1703928362349612;-0.0070710678118654866;0;0;0;0;0
1.1767536668666729;-0.0063439328416364706;0;0;0;0;0
1.1831144974983847;-0.0055557023301960407;0;0;0;0;0
1.1894753281300965;-0.0047139673682599992;0;0;0;0;0
1.1958361587618083;-0.0038268343236508924;0;0;0;0;0
1.20219698939352;-0.0029028467725446213;0;0;0;0;0
1.2085578200252318;-0.0019509032201612834;0;0;0;0;0
1.2149186506569434;-0.00098017140329564531;0;0;0;0;0
1.2212794812886552;-7.3478807948841184e-18;0;0;0;0;0
1.2276403119203669;0.00098017140329559544;0;0;0;0;0
1.2340011425520787;0.0019509032201612689;0;0;0;0;0
1.2403619731837905;0.0029028467725446074;0;0;0;0;0
1.2467228038155023;0.0038268343236509111;0;0;0;0;0
1.253083634447214;0.0047139673682599862;0;0;0;0;0
1.2594444650789256;0.0055557023301959999;0;0;0;0;0
1.2658052957106374;0.0063439328416364316;0;0;0;0;0
1.2721661263423492;0.0070710678118654762;0;0;0;0;0
1.2785269569740609;0.0077301045336273678;0;0;0;0;0
1.2848877876057727;0.0083146961230254491;0;0;0;0;0
1.2912486182374845;0.0088192126434835458;0;0;0;0;0
1.2976094488691963;0.009238795325112863;0;0;0;0;0
1.3039702795009078;0.009569403357322084;0;0;0;0;0
1.3103311101326196;0.0098078528040323014;0;0;0;0;0
1.3166919407643314;0.0099518472667219672;0;0;0;0;0
1.3230527713960432;0.01;0;0;0;0;0
1.3294136020277549;0.0099518472667219689;0;0;0;0;0
1.3357744326594667;0.0098078528040323049;0;0;0;0;0
1.3421352632911785;0.0095694033573220892;0;0;0;0;0
1.34849609392289;0.0092387953251128838;0;0;0;0;0
1.3548569245546018;0.0088192126434835545;0;0;0;0;0
1.3612177551863136;0.0083146961230254578;0;0;0;0;0
1.3675785858180254;0.0077301045336273791;0;0;0;0;0
1.3739394164497372;0.0070710678118654866;0;0;0;0;0
1.3803002470814489;0.0063439328416364437;0;0;0;0;0
1.3866610777131605;0.0055557023301960416;0;0;0;0;0
1.3930219083448723;0.0047139673682600001;0;0;0;0;0
1.3993827389765841;0.0038268343236509262;0;0;0;0;0
1.4057435696082958;0.0029028467725446222;0;0;0;0;0
1.4121044002400076;0.0019509032201612845;0;0;0;0;0
1.4184652308717194;0.00098017140329561127;0;0;0;0;0
1.4248260615034312;8.572527594031472e-18;0;0;0;0;0
1.4311868921351427;-0.00098017140329559414;0;0;0;0;0
1.4375477227668545;-0.0019509032201612678;0;0;0;0;0
1.4439085533985663;-0.0029028467725446057;0;0;0;0;0
1.4502693840302781;-0.0038268343236508772;0;0;0;0;0
1.4566302146619898;-0.0047139673682599541;0;0;0;0;0
1.4629910452937016;-0.0055557023301960277;0;0;0;0;0
1.4693518759254134;-0.0063439328416364576;0;0;0;0;0
1.4757127065571249;-0.0070710678118654502;0;0;0;0;0
1.4820735371888367;-0.0077301045336273444;0;0;0;0;0
1.4884343678205485;-0.0083146961230254491;0;0;0;0;0
1.4947951984522603;-0.0088192126434835458;0;0;0;0;0
1.5011560290839721;-0.009238795325112863;0;0;0;0;0
1.5075168597156838;-0.009569403357322084;0;0;0;0;0
1.5138776903473956;-0.0098078528040323083;0;0;0;0;0
1.5202385209791072;-0.0099518472667219672;0;0;0;0;0
1.5265993516108189;-0.01;0;0;0;0;0
1.5329601822425307;-0.0099518472667219724;0;0;0;0;0
1.5393210128742425;-0.0098078528040323049;0;0;0;0;0
1.5456818435059543;-0.0095694033573220892;0;0;0;0;0
1.5520426741376661;-0.00923879532511287;0;0;0;0;0
1.5584035047693778;-0.0088192126434835545;0;0;0;0;0
1.5647643354010894;-0.0083146961230254595;0;0;0;0;0
1.5711251660328012;-0.0077301045336273791;0;0;0;0;0
1.5774859966645129;-0.0070710678118654884;0;0;0;0;0
1.5838468272962247;-0.0063439328416364715;0;0;0;0;0
1.5902076579279365;-0.0055557023301960433;0;0;0;0;0
1.5965684885596483;-0.0047139673682599706;0;0;0;0;0
1.6029293191913601;-0.0038268343236508946;0;0;0;0;0
1.6092901498230716;-0.0029028467725446573;0;0;0;0;0
1.6156509804547834;-0.0019509032201613205;0;0;0;0;0
1.6220118110864952;-0.00098017140329561235;0;0;0;0;0
1.6283726417182069;-9.7971743931788255e-18;0;0;0;0;0
1.6347334723499187;0.00098017140329559284;0;0;0;0;0
1.6410943029816305;0.0019509032201612665;0;0;0;0;0
1.6474551336133423;0.0029028467725446391;0;0;0;0;0
1.6538159642450538;0.0038268343236508764;0;0;0;0;0
1.6601767948767656;0.0047139673682599532;0;0;0;0;0
1.6665376255084774;0.0055557023301959973;0;0;0;0;0
1.6728984561401892;0.0063439328416364576;0;0;0;0;0
1.6792592867719009;0.0070710678118654745;0;0;0;0;0
1.6856201174036127;0.0077301045336273669;0;0;0;0;0
1.6919809480353245;0.0083146961230254474;0;0;0;0;0
1.6983417786670361;0.0088192126434835285;0;0;0;0;0
1.7047026092987478;0.0092387953251128613;0;0;0;0;0
1.7110634399304596;0.009569403357322084;0;0;0;0;0
1.7174242705621714;0.0098078528040322997;0;0;0;0;0
1.7237851011938832;0.0099518472667219655;0;0;0;0;0
1.730145931825595;0.01;0;0;0;0;0
1.7365067624573067;0.0099518472667219689;0;0;0;0;0
1.7428675930890183;0.0098078528040323118;0;0;0;0;0
1.7492284237207301;0.0095694033573220996;0;0;0;0;0
1.7555892543524418;0.00923879532511287;0;0;0;0;0
1.7619500849841536;0.0088192126434835545;0;0;0;0;0
1.7683109156158654;0.0083146961230254595;0;0;0;0;0
1.7746717462475772;0.0077301045336273799;0;0;0;0;0
1.781032576879289;0.0070710678118654641;0;0;0;0;0
1.7873934075110005;0.0063439328416364724;0;0;0;0;0
1.7937542381427123;0.0055557023301960442;0;0;0;0;0
1.8001150687744241;0.0047139673682600027;0;0;0;0;0
1.8064758994061358;0.0038268343236508959;0;0;0;0;0
1.8128367300378476;0.0029028467725446244;0;0;0;0;0
1.8191975606695594;0.0019509032201612869;0;0;0;0;0
1.8255583913012712;0.00098017140329561365;0;0;0;0;0
1.8319192219329827;4.6548957980331189e-17;0;0;0;0;0
1.8382800525646945;-0.00098017140329559175;0;0;0;0;0
1.8446408831964063;-0.0019509032201612652;0;0;0;0;0
1.8510017138281181;-0.0029028467725446035;0;0;0;0;0
1.8573625444598298;-0.0038268343236508751;0;0;0;0;0
1.8637233750915416;-0.0047139673682599836;0;0;0;0;0
1.8700842057232534;-0.0055557023301960259;0;0;0;0;0
1.876445036354965;-0.0063439328416364281;0;0;0;0;0
1.8828058669866767;-0.0070710678118654485;0;0;0;0;0
1.8891666976183885;-0.007730104533627366;0;0;0;0;0
1.8955275282501003;-0.0083146961230254474;0;0;0;0;0
1.9018883588818121;-0.0088192126434835441;0;0;0;0;0
1.9082491895135238;-0.0092387953251128613;0;0;0;0;0
1.9146100201452354;-0.0095694033573220823;0;0;0;0;0
1.9209708507769472;-0.0098078528040322997;0;0;0;0;0
1.927331681408659;-0.0099518472667219655;0;0;0;0;0
1.9336925120403707;-0.01;0;0;0;0;0
1.9400533426720825;-0.0099518472667219689;0;0;0;0;0
1.9464141733037943;-0.0098078528040323049;0;0;0;0;0
1.9527750039355061;-0.0095694033573220892;0;0;0;0;0
1.9591358345672176;-0.0092387953251128838;0;0;0;0;0
1.9654966651989294;-0.0088192126434835719;0;0;0;0;0
1.9718574958306412;-0.0083146961230254595;0;0;0;0;0
1.978218326462353;-0.0077301045336273808;0;0;0;0;0
1.9845791570940647;-0.0070710678118654901;0;0;0;0;0
1.9909399877257765;-0.0063439328416364741;0;0;0;0;0
1.9973008183574883;-0.0055557023301960155;0;0;0;0;0
2.0036616489891999;-0.0047139673682600036;0;0;0;0;0
2.0100224796209116;-0.0038268343236509297;0;0;0;0;0
2.0163833102526234;-0.0029028467725446599;0;0;0;0;0
2.0227441408843352;-0.001950903220161288;0;0;0;0;0
2.029104971516047;-0.00098017140329561495;0;0;0;0;0
2.0354658021477587;-1.2246467991473533e-17;0;0;0;0;0
2.0418266327794705;0.00098017140329559045;0;0;0;0;0
2.0481874634111823;0.0019509032201612988;0;0;0;0;0
2.0545482940428941;0.0029028467725446361;0;0;0;0;0
2.0609091246746059;0.0038268343236509067;0;0;0;0;0
2.0672699553063176;0.0047139673682599819;0;0;0;0;0
2.073630785938029;0.0055557023301959956;0;0;0;0;0
2.0799916165697407;0.0063439328416363995;0;0;0;0;0
2.0863524472014525;0.0070710678118654485;0;0;0;0;0
2.0927132778331643;0.007730104533627366;0;0;0;0;0
2.0990741084648761;0.0083146961230254265;0;0;0;0;0
2.1054349390965879;0.0088192126434835441;0;0;0;0;0
2.1117957697282996;0.0092387953251128474;0;0;0;0;0
2.1181566003600114;0.0095694033573220823;0;0;0;0;0
2.1245174309917232;0.0098078528040323066;0;0;0;0;0
2.130878261623435;0.0099518472667219655;0;0;0;0;0
2.1372390922551467;0.01;0;0;0;0;0
2.1435999228868585;0.0099518472667219655;0;0;0;0;0
2.1499607535185703;0.0098078528040323049;0;0;0;0;0
2.1563215841502821;0.0095694033573220788;0;0;0;0;0
2.1626824147819934;0.0092387953251128994;0;0;0;0;0
2.1690432454137052;0.0088192126434835736;0;0;0;0;0
2.175404076045417;0.0083146961230254612;0;0;0;0;0
2.1817649066771287;0.0077301045336274042;0;0;0;0;0
2.1881257373088405;0.0070710678118654918;0;0;0;0;0
2.1944865679405523;0.0063439328416364472;0;0;0;0;0
2.2008473985722641;0.0055557023301960459;0;0;0;0;0
2.2072082292039759;0.0047139673682599741;0;0;0;0;0
2.2135690598356876;0.0038268343236509306;0;0;0;0;0
2.2199298904673994;0.0029028467725446265;0;0;0;0;0
2.2262907210991112;0.0019509032201612544;0;0;0;0;0
2.232651551730823;0.00098017140329561604;0;0;0;0;0
2.2390123823625347;-2.2056021997384124e-17;0;0;0;0;0
2.2453732129942461;-0.00098017140329551868;0;0;0;0;0
2.2517340436259579;-0.0019509032201612281;0;0;0;0;0
2.2580948742576696;-0.0029028467725446014;0;0;0;0;0
2.2644557048893814;-0.0038268343236508404;0;0;0;0;0
2.2708165355210932;-0.0047139673682599498;0;0;0;0;0
2.277177366152805;-0.0055557023301960242;0;0;0;0;0
2.2835381967845167;-0.0063439328416364264;0;0;0;0;0
2.2898990274162285;-0.007071067811865471;0;0;0;0;0
2.2962598580479403;-0.0077301045336273426;0;0;0;0;0
2.3026206886796521;-0.0083146961230254456;0;0;0;0;0
2.3089815193113639;-0.0088192126434835615;0;0;0;0;0
2.3153423499430756;-0.0092387953251128613;0;0;0;0;0
2.3217031805747874;-0.0095694033573220927;0;0;0;0;0
2.3280640112064992;-0.0098078528040322997;0;0;0;0;0
2.3344248418382105;-0.009951847266721962;0;0;0;0;0
2.3407856724699223;-0.01;0;0;0;0;0
2.3471465031016341;-0.0099518472667219759;0;0;0;0;0
2.3535073337333459;-0.0098078528040323118;0;0;0;0;0
2.3598681643650576;-0.0095694033573220909;0;0;0;0;0
2.3662289949967694;-0.0092387953251128856;0;0;0;0;0
2.3725898256284812;-0.0088192126434835563;0;0;0;0;0
2.378950656260193;-0.0083146961230254821;0;0;0;0;0
2.3853114868919048;-0.0077301045336273825;0;0;0;0;0
2.3916723175236165;-0.0070710678118654667;0;0;0;0;0
2.3980331481553283;-0.0063439328416364758;0;0;0;0;0
2.4043939787870401;-0.0055557023301960173;0;0;0;0;0
2.4107548094187519;-0.0047139673682599428;0;0;0;0;0
2.4171156400504636;-0.0038268343236508989;0;0;0;0;0
2.423476470682175;-0.0029028467725446621;0;0;0;0;0
2.4298373013138868;-0.0019509032201613602;0;0;0;0;0
2.4361981319455985;-0.00098017140329565268;0;0;0;0;0
2.4425589625773103;-1.4695761589768237e-17;0;0;0;0;0
2.4489197932090221;0.00098017140329555272;0;0;0;0;0
2.4552806238407339;0.0019509032201612618;0;0;0;0;0
2.4616414544724456;0.0029028467725446339;0;0;0;0;0
2.4680022851041574;0.0038268343236508716;0;0;0;0;0
2.4743631157358692;0.0047139673682599801;0;0;0;0;0
2.480723946367581;0.005555702330195993;0;0;0;0;0
2.4870847769992928;0.0063439328416364524;0;0;0;0;0
2.4934456076310045;0.0070710678118654962;0;0;0;0;0
2.4998064382627163;0.0077301045336273634;0;0;0;0;0
2.5061672688944281;0.0083146961230254647;0;0;0;0;0
2.5125280995261394;0.0088192126434835094;0;0;0;0;0
2.5188889301578512;0.0092387953251128457;0;0;0;0;0
2.525249760789563;0.0095694033573220823;0;0;0;0;0
2.5316105914212748;0.0098078528040322927;0;0;0;0;0
2.5379714220529865;0.0099518472667219655;0;0;0;0;0
2.5443322526846983;0.01;0;0;0;0;0
2.5506930833164101;0.0099518472667219724;0;0;0;0;0
2.5570539139481219;0.0098078528040323049;0;0;0;0;0
2.5634147445798336;0.0095694033573221014;0;0;0;0;0
2.5697755752115454;0.0092387953251128717;0;0;0;0;0
2.5761364058432572;0.0088192126434835406;0;0;0;0;0
2.582497236474969;0.008314696123025463;0;0;0;0;0
2.5888580671066808;0.00773010453362736;0;0;0;0;0
2.5952188977383925;0.0070710678118654927;0;0;0;0;0
2.6015797283701039;0.0063439328416365036;0;0;0;0;0
2.6079405590018157;0.0055557023301960485;0;0;0;0;0
2.6143013896335274;0.0047139673682600391;0;0;0;0;0
2.6206622202652392;0.0038268343236509328;0;0;0;0;0
2.627023050896951;0.0029028467725446296;0;0;0;0;0
2.6333838815286628;0.0019509032201613266;0;0;0;0;0
2.6397447121603745;0.00098017140329561864;0;0;0;0;0
2.6461055427920863;5.1447545176920603e-17;0;0;0;0;0
2.6524663734237981;-0.00098017140329558698;0;0;0;0;0
2.6588272040555099;-0.0019509032201612954;0;0;0;0;0
2.6651880346872217;-0.0029028467725445988;0;0;0;0;0
2.6715488653189334;-0.0038268343236509033;0;0;0;0;0
2.6779096959506452;-0.0047139673682600105;0;0;0;0;0
2.684270526582357;-0.0055557023301960216;0;0;0;0;0
2.6906313572140683;-0.0063439328416364247;0;0;0;0;0
2.6969921878457801;-0.0070710678118654207;0;0;0;0;0
2.7033530184774919;-0.00773010453362734;0;0;0;0;0
2.7097138491092037;-0.0083146961230254439;0;0;0;0;0
2.7160746797409154;-0.008819212643483525;0;0;0;0;0
2.7224355103726272;-0.0092387953251128595;0;0;0;0;0
2.728796341004339;-0.0095694033573220909;0;0;0;0;0
2.7351571716360508;-0.0098078528040322997;0;0;0;0;0
2.7415180022677625;-0.0099518472667219689;0;0;0;0;0
2.7478788328994743;-0.01;0;0;0;0;0
2.7542396635311861;-0.0099518472667219689;0;0;0;0;0
2.7606004941628979;-0.0098078528040322997;0;0;0;0;0
2.7669613247946097;-0.0095694033573220909;0;0;0;0;0
2.773322155426321;-0.0092387953251128873;0;0;0;0;0
2.7796829860580328;-0.0088192126434835909;0;0;0;0;0
2.7860438166897445;-0.0083146961230254821;0;0;0;0;0
2.7924046473214563;-0.0077301045336273834;0;0;0;0;0
2.7987654779531681;-0.0070710678118655196;0;0;0;0;0
2.8051263085848799;-0.0063439328416364776;0;0;0;0;0
2.8114871392165917;-0.0055557023301960199;0;0;0;0;0
2.8178479698483034;-0.0047139673682600079;0;0;0;0;0
2.8242088004800152;-0.0038268343236509011;0;0;0;0;0
2.830569631111727;-0.0029028467725446643;0;0;0;0;0
2.8369304617434388;-0.0019509032201612928;0;0;0;0;0
2.8432912923751505;-0.00098017140329558438;0;0;0;0;0
2.8496521230068623;-1.7145055188062944e-17;0;0;0;0;0
2.8560129536385741;0.00098017140329562102;0;0;0;0;0
2.8623737842702854;0.0019509032201612592;0;0;0;0;0
2.8687346149019972;0.0029028467725445632;0;0;0;0;0
2.875095445533709;0.0038268343236508694;0;0;0;0;0
2.8814562761654208;0.0047139673682599151;0;0;0;0;0
2.8878171067971325;0.0055557023301959904;0;0;0;0;0
2.8941779374288443;0.0063439328416364507;0;0;0;0;0
2.9005387680605561;0.0070710678118654433;0;0;0;0;0
2.9068995986922679;0.0077301045336273626;0;0;0;0;0
2.9132604293239797;0.0083146961230254248;0;0;0;0;0
2.9196212599556914;0.0088192126434835424;0;0;0;0;0
2.9259820905874032;0.0092387953251128734;0;0;0;0;0
2.932342921219115;0.0095694033573220823;0;0;0;0;0
2.9387037518508268;0.0098078528040323049;0;0;0;0;0
2.9450645824825386;0.0099518472667219724;0;0;0;0;0
2.9514254131142499;0.01;0;0;0;0;0
2.9577862437459617;0.0099518472667219724;0;0;0;0;0
2.9641470743776734;0.0098078528040323205;0;0;0;0;0
2.9705079050093852;0.0095694033573221014;0;0;0;0;0
2.976868735641097;0.0092387953251128734;0;0;0;0;0
2.9832295662728088;0.0088192126434835753;0;0;0;0;0
2.9895903969045206;0.008314696123025463;0;0;0;0;0
2.9959512275362323;0.0077301045336274068;0;0;0;0;0
3.0023120581679441;0.0070710678118654944;0;0;0;0;0
3.0086728887996559;0.0063439328416364507;0;0;0;0;0
3.0150337194313677;0.0055557023301960511;0;0;0;0;0
3.0213945500630794;0.0047139673682599784;0;0;0;0;0
3.0277553806947912;0.0038268343236508694;0;0;0;0;0
3.034116211326503;0.0029028467725446317;0;0;0;0;0
3.0404770419582143;0.001950903220161329;0;0;0;0;0
3.0468378725899261;0.00098017140329569171;0;0;0;0;0
3.0531987032216379;5.3896838775215304e-17;0;0;0;0;0
3.0595595338533497;-0.00098017140329558438;0;0;0;0;0
3.0659203644850614;-0.0019509032201612232;0;0;0;0;0
3.0722811951167732;-0.0029028467725445966;0;0;0;0;0
3.078642025748485;-0.0038268343236509011;0;0;0;0;0
3.0850028563801968;-0.0047139673682599454;0;0;0;0;0
3.0913636870119086;-0.0055557023301960199;0;0;0;0;0
3.0977245176436203;-0.0063439328416364229;0;0;0;0;0
3.1040853482753321;-0.0070710678118654684;0;0;0;0;0
3.1104461789070439;-0.0077301045336273834;0;0;0;0;0
3.1168070095387557;-0.0083146961230254439;0;0;0;0;0
3.1231678401704674;-0.008819212643483558;0;0;0;0;0
3.1295286708021788;-0.0092387953251128595;0;0;0;0;0
3.1358895014338906;-0.0095694033573220701;0;0;0;0;0
3.1422503320656023;-0.0098078528040322997;0;0;0;0;0
3.1486111626973141;-0.009951847266721962;0;0;0;0;0
3.1549719933290259;-0.01;0;0;0;0;0
3.1613328239607377;-0.0099518472667219689;0;0;0;0;0
3.1676936545924494;-0.0098078528040323135;0;0;0;0;0
3.1740544852241612;-0.0095694033573220909;0;0;0;0;0
3.180415315855873;-0.0092387953251128873;0;0;0;0;0
3.1867761464875848;-0.008819212643483558;0;0;0;0;0
3.1931369771192966;-0.0083146961230254439;0;0;0;0;0
3.1994978077510083;-0.007730104533627386;0;0;0;0;0
3.2058586383827201;-0.0070710678118654701;0;0;0;0;0
3.2122194690144319;-0.0063439328416364247;0;0;0;0;0
3.2185802996461432;-0.0055557023301960806;0;0;0;0;0
3.224941130277855;-0.0047139673682600105;0;0;0;0;0
3.2313019609095668;-0.0038268343236509688;0;0;0;0;0
3.2376627915412786;-0.0029028467725446669;0;0;0;0;0
3.2440236221729903;-0.0019509032201612954;0;0;0;0;0
3.2503844528047021;-0.00098017140329565745;0;0;0;0;0
3.2567452834364139;-1.9594348786357651e-17;0;0;0;0;0
3.2631061140681257;0.00098017140329554773;0;0;0;0;0
3.2694669446998375;0.001950903220161257;0;0;0;0;0
3.2758277753315492;0.0029028467725446296;0;0;0;0;0
3.282188605963261;0.0038268343236508673;0;0;0;0;0
3.2885494365949728;0.0047139673682599758;0;0;0;0;0
3.2949102672266846;0.0055557023301960485;0;0;0;0;0
3.3012710978583959;0.0063439328416363943;0;0;0;0;0
3.3076319284901077;0.0070710678118654424;0;0;0;0;0
3.3139927591218195;0.0077301045336273157;0;0;0;0;0
3.3203535897535312;0.0083146961230254231;0;0;0;0;0
3.326714420385243;0.0088192126434835406;0;0;0;0;0
3.3330752510169548;0.0092387953251128439;0;0;0;0;0
3.3394360816486666;0.0095694033573220805;0;0;0;0;0
3.3457969122803783;0.0098078528040323049;0;0;0;0;0
3.3521577429120901;0.0099518472667219655;0;0;0;0;0
3.3585185735438019;0.01;0;0;0;0;0
3.3648794041755137;0.0099518472667219724;0;0;0;0;0
3.3712402348072255;0.0098078528040323066;0;0;0;0;0
3.3776010654389372;0.0095694033573220823;0;0;0;0;0
3.383961896070649;0.0092387953251128734;0;0;0;0;0
3.3903227267023603;0.0088192126434835771;0;0;0;0;0
3.3966835573340721;0.0083146961230255046;0;0;0;0;0
3.4030443879657839;0.0077301045336274085;0;0;0;0;0
3.4094052185974957;0.0070710678118654962;0;0;0;0;0
3.4157660492292075;0.0063439328416365079;0;0;0;0;0
3.4221268798609192;0.005555702330196052;0;0;0;0;0
3.428487710492631;0.0047139673682599801;0;0;0;0;0
3.4348485411243428;0.0038268343236509375;0;0;0;0;0
3.4412093717560546;0.0029028467725446339;0;0;0;0;0
3.4475702023877663;0.0019509032201613314;0;0;0;0;0
3.4539310330194781;0.00098017140329562341;0;0;0;0;0
3.4602918636511899;-1.4708141202500005e-17;0;0;0;0;0
3.4666526942829017;-0.00098017140329558199;0;0;0;0;0
3.4730135249146135;-0.0019509032201612906;0;0;0;0;0
3.4793743555463248;-0.002902846772544594;0;0;0;0;0
3.4857351861780366;-0.0038268343236508334;0;0;0;0;0
3.4920960168097483;-0.0047139673682599428;0;0;0;0;0
3.4984568474414601;-0.0055557023301959583;0;0;0;0;0
3.5048176780731719;-0.0063439328416364203;0;0;0;0;0
3.5111785087048837;-0.0070710678118654667;0;0;0;0;0
3.5175393393365955;-0.0077301045336273366;0;0;0;0;0
3.5239001699683072;-0.0083146961230254422;0;0;0;0;0
3.530261000600019;-0.0088192126434835233;0;0;0;0;0
3.5366218312317308;-0.0092387953251128578;0;0;0;0;0
3.5429826618634426;-0.0095694033573220909;0;0;0;0;0
3.5493434924951544;-0.0098078528040322979;0;0;0;0;0
3.5557043231268661;-0.0099518472667219689;0;0;0;0;0
3.5620651537585779;-0.01;0;0;0;0;0
3.5684259843902892;-0.0099518472667219776;0;0;0;0;0
3.574786815022001;-0.0098078528040323135;0;0;0;0;0
3.5811476456537128;-0.0095694033573221135;0;0;0;0;0
3.5875084762854246;-0.0092387953251128873;0;0;0;0;0
3.5938693069171364;-0.0088192126434835615;0;0;0;0;0
3.6002301375488481;-0.0083146961230254855;0;0;0;0;0
3.6065909681805599;-0.0077301045336273869;0;0;0;0;0
3.6129517988122717;-0.007071067811865471;0;0;0;0;0
3.6193126294439835;-0.0063439328416364819;0;0;0;0;0
3.6256734600756952;-0.0055557023301960242;0;0;0;0;0
3.632034290707407;-0.0047139673682600122;0;0;0;0;0
3.6383951213391188;-0.0038268343236509059;0;0;0;0;0
3.6447559519708306;-0.0029028467725446014;0;0;0;0;0
3.6511167826025424;-0.0019509032201612978;0;0;0;0;0
3.6574776132342537;-0.00098017140329566006;0;0;0;0;0
3.6638384438659655;-9.3097915960662378e-17;0;0;0;0;0
3.6701992744976772;0.00098017140329554535;0;0;0;0;0
3.676560105129389;0.0019509032201612544;0;0;0;0;0
3.6829209357611008;0.0029028467725445589;0;0;0;0;0
3.6892817663928126;0.0038268343236508651;0;0;0;0;0
3.6956425970245244;0.0047139673682599741;0;0;0;0;0
3.7020034276562361;0.0055557023301959878;0;0;0;0;0
3.7083642582879479;0.0063439328416364472;0;0;0;0;0
3.7147250889196597;0.0070710678118654407;0;0;0;0;0
3.7210859195513715;0.0077301045336273591;0;0;0;0;0
3.7274467501830832;0.0083146961230254612;0;0;0;0;0
3.733807580814795;0.0088192126434835389;0;0;0;0;0
3.7401684114465068;0.0092387953251128717;0;0;0;0;0
3.7465292420782181;0.0095694033573220788;0;0;0;0;0
3.7528900727099299;0.009807852804032291;0;0;0;0;0
3.7592509033416417;0.0099518472667219655;0;0;0;0;0
3.7656117339733535;0.01;0;0;0;0;0
3.7719725646050652;0.0099518472667219724;0;0;0;0;0
3.778333395236777;0.0098078528040323066;0;0;0;0;0
3.7846942258684888;0.0095694033573221048;0;0;0;0;0
3.7910550565002006;0.0092387953251128734;0;0;0;0;0
3.7974158871319124;0.0088192126434835771;0;0;0;0;0
3.8037767177636241;0.0083146961230254664;0;0;0;0;0
3.8101375483953359;0.007730104533627366;0;0;0;0;0
3.8164983790270477;0.0070710678118654979;0;0;0;0;0
3.8228592096587595;0.006343932841636455;0;0;0;0;0
3.8292200402904708;0.0055557023301960537;0;0;0;0;0
3.8355808709221826;0.0047139673682600452;0;0;0;0;0
3.8419417015538944;0.0038268343236509397;0;0;0;0;0
3.8483025321856061;0.0029028467725447046;0;0;0;0;0
3.8546633628173179;0.001950903220161334;0;0;0;0;0
3.8610241934490297;0.00098017140329562579;0;0;0;0;0
3.8673850240807415;5.8795425971804725e-17;0;0;0;0;0
3.8737458547124533;-0.00098017140329557961;0;0;0;0;0
3.880106685344165;-0.001950903220161288;0;0;0;0;0
3.8864675159758768;-0.0029028467725445918;0;0;0;0;0
3.8928283466075886;-0.0038268343236508968;0;0;0;0;0
3.8991891772393004;-0.0047139673682599411;0;0;0;0;0
3.9055500078710121;-0.0055557023301960155;0;0;0;0;0
3.9119108385027239;-0.0063439328416364741;0;0;0;0;0
3.9182716691344353;-0.0070710678118654146;0;0;0;0;0
3.924632499766147;-0.0077301045336273357;0;0;0;0;0
3.9309933303978588;-0.0083146961230254023;0;0;0;0;0
3.9373541610295706;-0.0088192126434835216;0;0;0;0;0
3.9437149916612824;-0.0092387953251128561;0;0;0;0;0
3.9500758222929941;-0.0095694033573220701;0;0;0;0;0
3.9564366529247059;-0.0098078528040322979;0;0;0;0;0
3.9627974835564177;-0.0099518472667219689;0;0;0;0;0
3.9691583141881295;-0.01;0;0;0;0;0
3.9755191448198413;-0.0099518472667219689;0;0;0;0;0
3.981879975451553;-0.0098078528040323153;0;0;0;0;0
3.9882408060832648;-0.0095694033573220944;0;0;0;0;0
3.9946016367149766;-0.0092387953251128613;0;0;0;0;0
4.0009624673466879;-0.0088192126434835944;0;0;0;0;0
4.0073232979783997;-0.0083146961230254873;0;0;0;0;0
4.0136841286101115;-0.0077301045336273886;0;0;0;0;0
4.0200449592418233;-0.0070710678118655239;0;0;0;0;0
4.026405789873535;-0.0063439328416364828;0;0;0;0;0
4.0327666205052468;-0.0055557023301960849;0;0;0;0;0
4.0391274511369586;-0.0047139673682600148;0;0;0;0;0
4.0454882817686704;-0.003826834323650908;0;0;0;0;0
4.0518491124003821;-0.0029028467725446716;0;0;0;0;0
4.0582099430320939;-0.0019509032201612999;0;0;0;0;0
4.0645707736638057;-0.00098017140329566244;0;0;0;0;0
4.0709316042955175;-2.4492935982947065e-17;0;0;0;0;0
4.0772924349272293;0.00098017140329561365;0;0;0;0;0
4.083653265558941;0.001950903220161252;0;0;0;0;0
4.0900140961906528;0.0029028467725446244;0;0;0;0;0
4.0963749268223646;0.0038268343236509284;0;0;0;0;0
4.1027357574540764;0.0047139673682599715;0;0;0;0;0
4.1090965880857881;0.0055557023301960442;0;0;0;0;0
4.1154574187174999;0.0063439328416364446;0;0;0;0;0
4.1218182493492117;0.0070710678118654892;0;0;0;0;0
4.1281790799809235;0.0077301045336274025;0;0;0;0;0
4.1345399106126353;0.0083146961230254595;0;0;0;0;0
4.1409007412443462;0.0088192126434835059;0;0;0;0;0
4.1472615718760579;0.0092387953251128439;0;0;0;0;0
4.1536224025077697;0.009569403357322058;0;0;0;0;0
4.1599832331394815;0.0098078528040322771;0;0;0;0;0
4.1663440637711933;0.0099518472667219655;0;0;0;0;0
4.172704894402905;0.01;0;0;0;0;0
4.1790657250346168;0.0099518472667219811;0;0;0;0;0
4.1854265556663286;0.0098078528040323083;0;0;0;0;0
4.1917873862980404;0.0095694033573221048;0;0;0;0;0
4.1981482169297522;0.0092387953251129029;0;0;0;0;0
4.2045090475614639;0.0088192126434835458;0;0;0;0;0
4.2108698781931757;0.0083146961230254682;0;0;0;0;0
4.2172307088248875;0.007730104533627412;0;0;0;0;0
4.2235915394565993;0.0070710678118655499;0;0;0;0;0
4.229952370088311;0.0063439328416364576;0;0;0;0;0
4.2363132007200228;0.0055557023301960563;0;0;0;0;0
4.2426740313517346;0.0047139673682600469;0;0;0;0;0
4.2490348619834464;0.0038268343236508764;0;0;0;0;0
4.2553956926151582;0.0029028467725446391;0;0;0;0;0
4.2617565232468699;0.0019509032201613361;0;0;0;0;0
4.2681173538785817;0.00098017140329555771;0;0;0;0;0
4.2744781845102935;-9.8095540059105926e-18;0;0;0;0;0
4.2808390151420053;-0.00098017140329557701;0;0;0;0;0
4.287199845773717;-0.0019509032201613554;0;0;0;0;0
4.2935606764054288;-0.0029028467725446573;0;0;0;0;0
4.2999215070371406;-0.0038268343236508946;0;0;0;0;0
4.3062823376688524;-0.0047139673682599385;0;0;0;0;0
4.3126431683005642;-0.0055557023301960728;0;0;0;0;0
4.319003998932275;-0.0063439328416363613;0;0;0;0;0
4.3253648295639868;-0.0070710678118653626;0;0;0;0;0
4.3317256601956986;-0.0077301045336273348;0;0;0;0;0
4.3380864908274104;-0.0083146961230254005;0;0;0;0;0
4.3444473214591222;-0.0088192126434834869;0;0;0;0;0
4.3508081520908339;-0.0092387953251128561;0;0;0;0;0
4.3571689827225457;-0.0095694033573220684;0;0;0;0;0
4.3635298133542575;-0.009807852804032284;0;0;0;0;0
4.3698906439859693;-0.0099518472667219689;0;0;0;0;0
4.376251474617681;-0.01;0;0;0;0;0
4.3826123052493928;-0.0099518472667219776;0;0;0;0;0
4.3889731358811046;-0.0098078528040323014;0;0;0;0;0
4.3953339665128164;-0.0095694033573220944;0;0;0;0;0
4.4016947971445282;-0.009238795325112889;0;0;0;0;0
4.4080556277762399;-0.0088192126434835962;0;0;0;0;0
4.4144164584079517;-0.0083146961230254491;0;0;0;0;0
4.4207772890396635;-0.0077301045336273903;0;0;0;0;0
4.4271381196713753;-0.0070710678118655257;0;0;0;0;0
4.433498950303087;-0.0063439328416364307;0;0;0;0;0
4.4398597809347988;-0.0055557023301960277;0;0;0;0;0
4.4462206115665106;-0.0047139673682600174;0;0;0;0;0
4.4525814421982224;-0.0038268343236508447;0;0;0;0;0
4.4589422728299342;-0.0029028467725446057;0;0;0;0;0
4.4653031034616459;-0.0019509032201613025;0;0;0;0;0
4.4716639340933577;-0.00098017140329552345;0;0;0;0;0
4.4780247647250695;4.4112043994768248e-17;0;0;0;0;0
4.4843855953567813;0.00098017140329561127;0;0;0;0;0
4.4907464259884922;0.0019509032201611104;0;0;0;0;0
4.4971072566202039;0.0029028467725445545;0;0;0;0;0
4.5034680872519157;0.0038268343236507948;0;0;0;0;0
4.5098289178836275;0.004713967368259844;0;0;0;0;0
4.5161897485153393;0.0055557023301959834;0;0;0;0;0
4.5225505791470511;0.0063439328416363882;0;0;0;0;0
4.5289114097787628;0.0070710678118653869;0;0;0;0;0
4.5352722404104746;0.0077301045336273556;0;0;0;0;0
4.5416330710421864;0.0083146961230254196;0;0;0;0;0
4.5479939016738982;0.0088192126434835042;0;0;0;0;0
4.5543547323056099;0.0092387953251128682;0;0;0;0;0
4.5607155629373217;0.0095694033573220788;0;0;0;0;0
4.5670763935690335;0.0098078528040322892;0;0;0;0;0
4.5734372242007453;0.0099518472667219585;0;0;0;0;0
4.5797980548324571;0.01;0;0;0;0;0
4.5861588854641688;0.0099518472667219741;0;0;0;0;0
4.5925197160958806;0.0098078528040323222;0;0;0;0;0
4.5988805467275924;0.009569403357322084;0;0;0;0;0
4.6052413773593042;0.0092387953251128769;0;0;0;0;0
4.6116022079910159;0.0088192126434835788;0;0;0;0;0
4.6179630386227277;0.00831469612302543;0;0;0;0;0
4.6243238692544395;0.0077301045336273678;0;0;0;0;0
4.6306846998861513;0.0070710678118655014;0;0;0;0;0
4.6370455305178631;0.0063439328416364038;0;0;0;0;0
4.6434063611495748;0.0055557023301959999;0;0;0;0;0
4.6497671917812866;0.0047139673682599862;0;0;0;0;0
4.6561280224129984;0.003826834323650944;0;0;0;0;0
4.6624888530447102;0.0029028467725445727;0;0;0;0;0
4.6688496836764211;0.0019509032201614083;0;0;0;0;0
4.6752105143081328;0.00098017140329577216;0;0;0;0;0
4.6815713449398446;6.3694013168394139e-17;0;0;0;0;0
4.6879321755715564;-0.00098017140329550393;0;0;0;0;0
4.6942930062032682;-0.001950903220161144;0;0;0;0;0
4.7006538368349799;-0.0029028467725445875;0;0;0;0;0
4.7070146674666917;-0.0038268343236508265;0;0;0;0;0
4.7133754980984035;-0.0047139673682598743;0;0;0;0;0
4.7197363287301153;-0.0055557023301960121;0;0;0;0;0
4.7260971593618271;-0.0063439328416364151;0;0;0;0;0
4.7324579899935388;-0.0070710678118654112;0;0;0;0;0
4.7388188206252506;-0.0077301045336273782;0;0;0;0;0
4.7451796512569624;-0.0083146961230254387;0;0;0;0;0
4.7515404818886742;-0.0088192126434835198;0;0;0;0;0
4.757901312520386;-0.0092387953251128283;0;0;0;0;0
4.7642621431520977;-0.0095694033573220892;0;0;0;0;0
4.7706229737838095;-0.0098078528040322962;0;0;0;0;0
4.7769838044155213;-0.009951847266721962;0;0;0;0;0
4.7833446350472331;-0.01;0;0;0;0;0
4.7897054656789448;-0.0099518472667219707;0;0;0;0;0
4.7960662963106566;-0.0098078528040323153;0;0;0;0;0
4.8024271269423684;-0.0095694033573220736;0;0;0;0;0
4.8087879575740802;-0.009238795325112863;0;0;0;0;0
4.815148788205792;-0.0088192126434835632;0;0;0;0;0
4.8215096188375037;-0.0083146961230254109;0;0;0;0;0
4.8278704494692155;-0.007730104533627347;0;0;0;0;0
4.8342312801009273;-0.0070710678118654771;0;0;0;0;0
4.8405921107326391;-0.0063439328416364871;0;0;0;0;0
4.84695294136435;-0.0055557023301960893;0;0;0;0;0
4.8533137719960617;-0.0047139673682600816;0;0;0;0;0
4.8596746026277735;-0.0038268343236510438;0;0;0;0;0
4.8660354332594853;-0.002902846772544676;0;0;0;0;0
4.8723962638911971;-0.0019509032201613747;0;0;0;0;0
4.8787570945229088;-0.00098017140329573812;0;0;0;0;0
4.8851179251546206;-2.9391523179536474e-17;0;0;0;0;0
4.8914787557863324;0.00098017140329553797;0;0;0;0;0
4.8978395864180442;0.0019509032201611776;0;0;0;0;0
4.904200417049756;0.00290284677254462;0;0;0;0;0
4.9105612476814677;0.0038268343236508577;0;0;0;0;0
4.9169220783131795;0.0047139673682599047;0;0;0;0;0
4.9232829089448913;0.0055557023301960398;0;0;0;0;0
4.9296437395766031;0.006343932841636442;0;0;0;0;0
4.9360045702083148;0.0070710678118654363;0;0;0;0;0
4.9423654008400266;0.0077301045336273088;0;0;0;0;0
4.9487262314717384;0.0083146961230254578;0;0;0;0;0
4.9550870621034502;0.0088192126434835354;0;0;0;0;0
4.961447892735162;0.0092387953251128405;0;0;0;0;0
4.9678087233668737;0.0095694033573220979;0;0;0;0;0
4.9741695539985855;0.0098078528040323031;0;0;0;0;0
4.9805303846302973;0.0099518472667219655;0;0;0;0;0
4.9868912152620091;0.01;0;0;0;0;0
4.9932520458937208;0.0099518472667219672;0;0;0;0;0
4.9996128765254326;0.0098078528040323083;0;0;0;0;0
5.0059737071571444;0.0095694033573220632;0;0;0;0;0
5.0123345377888562;0.0092387953251128509;0;0;0;0;0
5.0186953684205671;0.0088192126434836135;0;0;0;0;0
5.0250561990522788;0.0083146961230255497;0;0;0;0;0
5.0314170296839906;0.0077301045336274146;0;0;0;0;0
5.0377778603157024;0.0070710678118655534;0;0;0;0;0
5.0441386909474142;0.0063439328416365704;0;0;0;0;0
5.050499521579126;0.0055557023301960606;0;0;0;0;0
5.0568603522108377;0.0047139673682600513;0;0;0;0;0
5.0632211828425495;0.0038268343236510121;0;0;0;0;0
5.0695820134742613;0.0029028467725446434;0;0;0;0;0
5.0759428441059731;0.0019509032201613411;0;0;0;0;0
5.0823036747376849;0.00098017140329570386;0;0;0;0;0
5.0886645053693966;-4.9109668093211799e-18;0;0;0;0;0
5.0950253360011084;-0.00098017140329557224;0;0;0;0;0
5.1013861666328202;-0.0019509032201612112;0;0;0;0;0
5.107746997264532;-0.0029028467725445168;0;0;0;0;0
5.1141078278962437;-0.0038268343236508903;0;0;0;0;0
5.1204686585279555;-0.004713967368259935;0;0;0;0;0
5.1268294891596673;-0.0055557023301959505;0;0;0;0;0
5.1331903197913791;-0.006343932841636468;0;0;0;0;0
5.1395511504230909;-0.0070710678118654606;0;0;0;0;0
5.1459119810548026;-0.0077301045336273314;0;0;0;0;0
5.1522728116865144;-0.0083146961230254751;0;0;0;0;0
5.1586336423182262;-0.0088192126434835511;0;0;0;0;0
5.164994472949938;-0.0092387953251128543;0;0;0;0;0
5.1713553035816497;-0.0095694033573221083;0;0;0;0;0
5.1777161342133615;-0.0098078528040323101;0;0;0;0;0
5.1840769648450733;-0.0099518472667219689;0;0;0;0;0
5.1904377954767851;-0.01;0;0;0;0;0
5.196798626108496;-0.0099518472667219776;0;0;0;0;0
5.2031594567402077;-0.0098078528040323291;0;0;0;0;0
5.2095202873719195;-0.0095694033573221378;0;0;0;0;0
5.2158811180036313;-0.0092387953251128925;0;0;0;0;0
5.2222419486353431;-0.0088192126434835979;0;0;0;0;0
5.2286027792670549;-0.0083146961230255306;0;0;0;0;0
5.2349636098987666;-0.0077301045336273938;0;0;0;0;0
5.2413244405304784;-0.0070710678118655291;0;0;0;0;0
5.2476852711621902;-0.0063439328416365435;0;0;0;0;0
5.254046101793902;-0.005555702330196032;0;0;0;0;0
5.2604069324256137;-0.0047139673682600209;0;0;0;0;0
5.2667677630573255;-0.0038268343236509805;0;0;0;0;0
5.2731285936890373;-0.0029028467725446105;0;0;0;0;0
5.2794894243207491;-0.0019509032201613073;0;0;0;0;0
5.2858502549524609;-0.00098017140329566981;0;0;0;0;0
5.2922110855841726;-1.0289509035384121e-16;0;0;0;0;0
5.2985719162158844;0.00098017140329560628;0;0;0;0;0
5.3049327468475962;0.0019509032201612448;0;0;0;0;0
5.311293577479308;0.0029028467725445493;0;0;0;0;0
5.3176544081110197;0.0038268343236509219;0;0;0;0;0
5.3240152387427315;0.0047139673682599645;0;0;0;0;0
5.3303760693744433;0.0055557023301959782;0;0;0;0;0
5.3367369000061551;0.0063439328416364949;0;0;0;0;0
5.3430977306378669;0.007071067811865484;0;0;0;0;0
5.3494585612695786;0.0077301045336273522;0;0;0;0;0
5.3558193919012904;0.0083146961230254942;0;0;0;0;0
5.3621802225330022;0.0088192126434835684;0;0;0;0;0
5.368541053164714;0.0092387953251128682;0;0;0;0;0
5.3749018837964249;0.0095694033573220354;0;0;0;0;0
5.3812627144281366;0.0098078528040322892;0;0;0;0;0
5.3876235450598484;0.0099518472667219568;0;0;0;0;0
5.3939843756915602;0.01;0;0;0;0;0
5.400345206323272;0.0099518472667219741;0;0;0;0;0
5.4067060369549838;0.0098078528040323222;0;0;0;0;0
5.4130668675866955;0.0095694033573221274;0;0;0;0;0
5.4194276982184073;0.0092387953251128786;0;0;0;0;0
5.4257885288501191;0.0088192126434835823;0;0;0;0;0
5.4321493594818309;0.0083146961230255115;0;0;0;0;0
5.4385101901135426;0.0077301045336273713;0;0;0;0;0
5.4448710207452544;0.0070710678118655048;0;0;0;0;0
5.4512318513769662;0.0063439328416365175;0;0;0;0;0
5.457592682008678;0.0055557023301960034;0;0;0;0;0
5.4639535126403898;0.0047139673682599905;0;0;0;0;0
5.4703143432721015;0.0038268343236509488;0;0;0;0;0
5.4766751739038133;0.0029028467725447137;0;0;0;0;0
5.4830360045355251;0.0019509032201612737;0;0;0;0;0
5.4893968351672369;0.00098017140329563555;0;0;0;0;0
5.4957576657989486;6.8592600364983554e-17;0;0;0;0;0
5.5021184964306604;-0.00098017140329564054;0;0;0;0;0
5.5084793270623722;-0.0019509032201612787;0;0;0;0;0
5.514840157694084;-0.0029028467725445823;0;0;0;0;0
5.5212009883257958;-0.0038268343236509536;0;0;0;0;0
5.5275618189575075;-0.0047139673682599957;0;0;0;0;0
5.5339226495892193;-0.0055557023301960077;0;0;0;0;0
5.5402834802209311;-0.0063439328416365218;0;0;0;0;0
5.546644310852642;-0.0070710678118654086;0;0;0;0;0
5.5530051414843538;-0.0077301045336272845;0;0;0;0;0
5.5593659721160655;-0.0083146961230253554;0;0;0;0;0
5.5657268027477773;-0.0088192126434835181;0;0;0;0;0
5.5720876333794891;-0.0092387953251128266;0;0;0;0;0
5.5784484640112009;-0.0095694033573220458;0;0;0;0;0
5.5848092946429126;-0.0098078528040322962;0;0;0;0;0
5.5911701252746244;-0.0099518472667219603;0;0;0;0;0
5.5975309559063362;-0.01;0;0;0;0;0
5.603891786538048;-0.0099518472667219707;0;0;0;0;0
5.6102526171697598;-0.0098078528040323153;0;0;0;0;0
5.6166134478014715;-0.009569403357322117;0;0;0;0;0
5.6229742784331833;-0.0092387953251128647;0;0;0;0;0
5.6293351090648951;-0.0088192126434835667;0;0;0;0;0
5.6356959396966069;-0.0083146961230254925;0;0;0;0;0
5.6420567703283186;-0.0077301045336274398;0;0;0;0;0
5.6484176009600304;-0.0070710678118654805;0;0;0;0;0
5.6547784315917422;-0.0063439328416364906;0;0;0;0;0
5.661139262223454;-0.0055557023301960927;0;0;0;0;0
5.6675000928551658;-0.0047139673682599602;0;0;0;0;0
5.6738609234868775;-0.0038268343236509167;0;0;0;0;0
5.6802217541185893;-0.0029028467725446812;0;0;0;0;0
5.6865825847503011;-0.0019509032201612401;0;0;0;0;0
5.6929434153820129;-0.00098017140329560151;0;0;0;0;0
5.6993042460137247;-3.4290110376125888e-17;0;0;0;0;0
5.7056650766454364;0.00098017140329567458;0;0;0;0;0
5.7120259072771482;0.0019509032201613123;0;0;0;0;0
5.71838673790886;0.0029028467725446152;0;0;0;0;0
5.7247475685405709;0.0038268343236508534;0;0;0;0;0
5.7311083991722827;0.0047139673682599003;0;0;0;0;0
5.7374692298039944;0.0055557023301959175;0;0;0;0;0
5.7438300604357062;0.0063439328416363284;0;0;0;0;0
5.750190891067418;0.0070710678118654328;0;0;0;0;0
5.7565517216991298;0.0077301045336273053;0;0;0;0;0
5.7629125523308415;0.0083146961230253745;0;0;0;0;0
5.7692733829625533;0.0088192126434835337;0;0;0;0;0
5.7756342135942651;0.0092387953251128387;0;0;0;0;0
5.7819950442259769;0.0095694033573220563;0;0;0;0;0
5.7883558748576887;0.0098078528040323031;0;0;0;0;0
5.7947167054894004;0.0099518472667219637;0;0;0;0;0
5.8010775361211122;0.01;0;0;0;0;0
5.807438366752824;0.0099518472667219672;0;0;0;0;0
5.8137991973845358;0.0098078528040323083;0;0;0;0;0
5.8201600280162475;0.0095694033573221066;0;0;0;0;0
5.8265208586479593;0.0092387953251129064;0;0;0;0;0
5.8328816892796711;0.0088192126434835493;0;0;0;0;0
5.8392425199113829;0.0083146961230254734;0;0;0;0;0
5.8456033505430947;0.0077301045336274181;0;0;0;0;0
5.8519641811748064;0.0070710678118654563;0;0;0;0;0
5.8583250118065182;0.0063439328416364637;0;0;0;0;0
5.86468584243823;0.0055557023301960641;0;0;0;0;0
5.8710466730699418;0.0047139673682599307;0;0;0;0;0
5.8774075037016535;0.0038268343236508851;0;0;0;0;0
5.8837683343333653;0.0029028467725446478;0;0;0;0;0
5.8901291649650771;0.0019509032201612065;0;0;0;0;0
5.8964899955967889;0.00098017140329556725;0;0;0;0;0
5.9028508262284998;1.4209616753928826e-16;0;0;0;0;0
5.9092116568602115;-0.00098017140329542587;0;0;0;0;0
5.9155724874919233;-0.0019509032201612065;0;0;0;0;0
5.9219333181236351;-0.0029028467725445125;0;0;0;0;0
5.9282941487553469;-0.0038268343236507541;0;0;0;0;0
5.9346549793870587;-0.0047139673682599307;0;0;0;0;0
5.9410158100187704;-0.0055557023301959461;0;0;0;0;0
5.9473766406504822;-0.0063439328416363544;0;0;0;0;0
5.953737471282194;-0.0070710678118654563;0;0;0;0;0
5.9600983019139058;-0.0077301045336273279;0;0;0;0;0
5.9664591325456175;-0.0083146961230253953;0;0;0;0;0
5.9728199631773293;-0.0088192126434835493;0;0;0;0;0
5.9791807938090411;-0.0092387953251128526;0;0;0;0;0
5.9855416244407529;-0.0095694033573220667;0;0;0;0;0
5.9919024550724647;-0.0098078528040322806;0;0;0;0;0
5.9982632857041764;-0.0099518472667219672;0;0;0;0;0
6.0046241163358882;-0.01;0;0;0;0;0
6.0109849469676;-0.0099518472667219776;0;0;0;0;0
6.0173457775993118;-0.0098078528040323031;0;0;0;0;0
6.0237066082310236;-0.0095694033573220979;0;0;0;0;0
6.0300674388627353;-0.0092387953251128925;0;0;0;0;0
6.0364282694944471;-0.0088192126434835337;0;0;0;0;0
6.0427891001261589;-0.0083146961230254543;0;0;0;0;0
6.0491499307578707;-0.0077301045336273964;0;0;0;0;0
6.0555107613895824;-0.0070710678118654328;0;0;0;0;0
6.0618715920212942;-0.0063439328416364385;0;0;0;0;0
6.068232422653006;-0.0055557023301960363;0;0;0;0;0
6.0745932532847169;-0.0047139673682600252;0;0;0;0;0
6.0809540839164287;-0.0038268343236509852;0;0;0;0;0
6.0873149145481404;-0.002902846772544751;0;0;0;0;0
6.0936757451798522;-0.0019509032201614515;0;0;0;0;0
6.100036575811564;-0.00098017140329567458;0;0;0;0;0
6.1063974064432758;-1.0779367755043061e-16;0;0;0;0;0
6.1127582370749876;0.00098017140329546013;0;0;0;0;0
6.1191190677066993;0.0019509032201612401;0;0;0;0;0
6.1254798983384111;0.002902846772544545;0;0;0;0;0
6.1318407289701229;0.0038268343236507857;0;0;0;0;0
6.1382015596018347;0.0047139673682599602;0;0;0;0;0
6.1445623902335464;0.0055557023301959756;0;0;0;0;0
6.1509232208652582;0.0063439328416363804;0;0;0;0;0
6.15728405149697;0.0070710678118654805;0;0;0;0;0
6.1636448821286818;0.0077301045336273504;0;0;0;0;0
6.1700057127603936;0.0083146961230254144;0;0;0;0;0
6.1763665433921053;0.008819212643483499;0;0;0;0;0
6.1827273740238171;0.0092387953251128647;0;0;0;0;0
6.1890882046555289;0.0095694033573220771;0;0;0;0;0
6.1954490352872407;0.0098078528040322875;0;0;0;0;0
6.2018098659189524;0.0099518472667219707;0;0;0;0;0
6.2081706965506642;0.01;0;0;0;0;0
6.214531527182376;0.0099518472667219759;0;0;0;0;0
6.2208923578140878;0.0098078528040322962;0;0;0;0;0
6.2272531884457996;0.0095694033573220875;0;0;0;0;0
6.2336140190775113;0.0092387953251128804;0;0;0;0;0
6.2399748497092231;0.0088192126434835181;0;0;0;0;0
6.2463356803409349;0.0083146961230254352;0;0;0;0;0
6.2526965109726458;0.0077301045336274641;0;0;0;0;0
6.2590573416043576;0.0070710678118655083;0;0;0;0;0
6.2654181722360693;0.0063439328416365218;0;0;0;0;0
6.2717790028677811;0.0055557023301961266;0;0;0;0;0
6.2781398334994929;0.0047139673682601206;0;0;0;0;0
6.2845006641312047;0.0038268343236509536;0;0;0;0;0
6.2908614947629165;0.0029028467725447185;0;0;0;0;0
6.2972223253946282;0.0019509032201614179;0;0;0;0;0
6.30358315602634;0.00098017140329564054;0;0;0;0;0
6.3099439866580518;7.3491187561572956e-17;0;0;0;0;0
6.3163048172897636;-0.00098017140329549417;0;0;0;0;0
6.3226656479214753;-0.0019509032201612737;0;0;0;0;0
6.3290264785531871;-0.0029028467725445779;0;0;0;0;0
6.3353873091848989;-0.0038268343236508174;0;0;0;0;0
6.3417481398166107;-0.0047139673682599905;0;0;0;0;0
6.3481089704483225;-0.0055557023301960034;0;0;0;0;0
6.3544698010800342;-0.0063439328416364073;0;0;0;0;0
6.360830631711746;-0.0070710678118654051;0;0;0;0;0
6.3671914623434578;-0.0077301045336273713;0;0;0;0;0
6.3735522929751696;-0.0083146961230254317;0;0;0;0;0
6.3799131236068813;-0.0088192126434835146;0;0;0;0;0
6.3862739542385931;-0.0092387953251128786;0;0;0;0;0
6.3926347848703049;-0.0095694033573220857;0;0;0;0;0
6.3989956155020167;-0.0098078528040322945;0;0;0;0;0
6.4053564461337285;-0.0099518472667219741;0;0;0;0;0
6.4117172767654402;-0.01;0;0;0;0;0
6.418078107397152;-0.0099518472667219724;0;0;0;0;0
6.4244389380288638;-0.0098078528040322892;0;0;0;0;0
6.4307997686605747;-0.0095694033573221187;0;0;0;0;0
6.4371605992922865;-0.009238795325112922;0;0;0;0;0
6.4435214299239982;-0.0088192126434836343;0;0;0;0;0
6.44988226055571;-0.0083146961230254942;0;0;0;0;0
6.4562430911874218;-0.0077301045336274432;0;0;0;0;0
6.4626039218191336;-0.0070710678118655846;0;0;0;0;0
6.4689647524508453;-0.0063439328416364949;0;0;0;0;0
6.4753255830825571;-0.0055557023301960971;0;0;0;0;0
6.4816864137142689;-0.0047139673682600903;0;0;0;0;0
6.4880472443459807;-0.0038268343236509219;0;0;0;0;0
6.4944080749776925;-0.0029028467725446855;0;0;0;0;0
6.5007689056094042;-0.0019509032201613841;0;0;0;0;0
6.507129736241116;-0.00098017140329560628;0;0;0;0;0
6.5134905668728278;-3.9188697572715302e-17;0;0;0;0;0
6.5198513975045396;0.00098017140329552843;0;0;0;0;0
6.5262122281362513;0.0019509032201611679;0;0;0;0;0
6.5325730587679631;0.0029028467725446105;0;0;0;0;0
6.5389338893996749;0.0038268343236508491;0;0;0;0;0
6.5452947200313867;0.004713967368259896;0;0;0;0;0
6.5516555506630985;0.005555702330196032;0;0;0;0;0
6.5580163812948102;0.0063439328416364342;0;0;0;0;0
6.564377211926522;0.0070710678118654285;0;0;0;0;0
6.5707380425582338;0.0077301045336273938;0;0;0;0;0
6.5770988731899456;0.0083146961230254508;0;0;0;0;0
6.5834597038216573;0.008819212643483532;0;0;0;0;0
6.5898205344533691;0.0092387953251128925;0;0;0;0;0
6.5961813650850809;0.0095694033573220962;0;0;0;0;0
6.6025421957167918;0.0098078528040322754;0;0;0;0;0
6.6089030263485036;0.0099518472667219637;0;0;0;0;0
6.6152638569802154;0.01;0;0;0;0;0
6.6216246876119271;0.0099518472667219811;0;0;0;0;0
6.6279855182436389;0.0098078528040323378;0;0;0;0;0
6.6343463488753507;0.0095694033573221083;0;0;0;0;0
6.6407071795070625;0.0092387953251129081;0;0;0;0;0
6.6470680101387742;0.0088192126434836187;0;0;0;0;0
6.653428840770486;0.0083146961230254751;0;0;0;0;0
6.6597896714021978;0.0077301045336274216;0;0;0;0;0
6.6661505020339096;0.0070710678118655603;0;0;0;0;0
6.6725113326656214;0.006343932841636468;0;0;0;0;0
6.6788721632973331;0.0055557023301960684;0;0;0;0;0
6.6852329939290449;0.0047139673682600599;0;0;0;0;0
6.6915938245607567;0.0038268343236508903;0;0;0;0;0
6.6979546551924685;0.002902846772544653;0;0;0;0;0
6.7043154858241802;0.0019509032201613504;0;0;0;0;0
6.710676316455892;0.00098017140329571362;0;0;0;0;0
6.7170371470876038;4.8862075838576457e-18;0;0;0;0;0
6.7233979777193156;-0.00098017140329556248;0;0;0;0;0
6.7297588083510274;-0.0019509032201612017;0;0;0;0;0
6.7361196389827391;-0.0029028467725446434;0;0;0;0;0
6.7424804696144509;-0.0038268343236508807;0;0;0;0;0
6.7488413002461627;-0.0047139673682599264;0;0;0;0;0
6.7552021308778745;-0.0055557023301960606;0;0;0;0;0
6.7615629615095862;-0.0063439328416364602;0;0;0;0;0
6.767923792141298;-0.0070710678118654528;0;0;0;0;0
6.7742846227730098;-0.0077301045336274146;0;0;0;0;0
6.7806454534047207;-0.0083146961230253918;0;0;0;0;0
6.7870062840364325;-0.0088192126434834799;0;0;0;0;0
6.7933671146681442;-0.0092387953251127971;0;0;0;0;0
6.799727945299856;-0.0095694033573220632;0;0;0;0;0
6.8060887759315678;-0.0098078528040322806;0;0;0;0;0
6.8124496065632796;-0.0099518472667219533;0;0;0;0;0
6.8188104371949914;-0.01;0;0;0;0;0
6.8251712678267031;-0.0099518472667219776;0;0;0;0;0
6.8315320984584149;-0.0098078528040323309;0;0;0;0;0
6.8378929290901267;-0.0095694033573220979;0;0;0;0;0
6.8442537597218385;-0.009238795325112896;0;0;0;0;0
6.8506145903535502;-0.0088192126434836031;0;0;0;0;0
6.856975420985262;-0.0083146961230254578;0;0;0;0;0
6.8633362516169738;-0.007730104533627399;0;0;0;0;0
6.8696970822486856;-0.0070710678118655361;0;0;0;0;0
6.8760579128803974;-0.006343932841636442;0;0;0;0;0
6.8824187435121091;-0.0055557023301960398;0;0;0;0;0
6.8887795741438209;-0.0047139673682600296;0;0;0;0;0
6.8951404047755327;-0.0038268343236509896;0;0;0;0;0
6.9015012354072445;-0.00290284677254462;0;0;0;0;0
6.9078620660389563;-0.0019509032201613168;0;0;0;0;0
6.914222896670668;-0.00098017140329567957;0;0;0;0;0
6.9205837273023798;2.9416282405000011e-17;0;0;0;0;0
6.9269445579340916;0.00098017140329559652;0;0;0;0;0
6.9333053885658034;0.0019509032201612353;0;0;0;0;0
6.9396662191975151;0.002902846772544676;0;0;0;0;0
6.9460270498292269;0.0038268343236509124;0;0;0;0;0
6.9523878804609387;0.0047139673682599567;0;0;0;0;0
6.9587487110926496;0.0055557023301959704;0;0;0;0;0
6.9651095417243614;0.006343932841636377;0;0;0;0;0
6.9714703723560731;0.0070710678118653773;0;0;0;0;0
6.9778312029877849;0.0077301045336272568;0;0;0;0;0
6.9841920336194967;0.0083146961230254109;0;0;0;0;0
6.9905528642512085;0.0088192126434834955;0;0;0;0;0
6.9969136948829203;0.0092387953251128092;0;0;0;0;0
7.003274525514632;0.0095694033573220736;0;0;0;0;0
7.0096353561463438;0.0098078528040322875;0;0;0;0;0
7.0159961867780556;0.0099518472667219568;0;0;0;0;0
7.0223570174097674;0.01;0;0;0;0;0
7.0287178480414791;0.0099518472667219759;0;0;0;0;0
7.0350786786731909;0.0098078528040323239;0;0;0;0;0
7.0414395093049027;0.0095694033573220892;0;0;0;0;0
7.0478003399366145;0.0092387953251128821;0;0;0;0;0
7.0541611705683263;0.0088192126434835857;0;0;0;0;0
7.060522001200038;0.0083146961230255167;0;0;0;0;0
7.0668828318317498;0.0077301045336273782;0;0;0;0;0
7.0732436624634616;0.0070710678118655118;0;0;0;0;0
7.0796044930951734;0.0063439328416365253;0;0;0;0;0
7.0859653237268851;0.0055557023301960121;0;0;0;0;0
7.0923261543585969;0.0047139673682599992;0;0;0;0;0
7.0986869849903087;0.0038268343236509579;0;0;0;0;0
7.1050478156220205;0.0029028467725445875;0;0;0;0;0
7.1114086462537323;0.0019509032201612834;0;0;0;0;0
7.117769476885444;0.00098017140329564531;0;0;0;0;0
7.1241303075171558;-6.371877239385767e-17;0;0;0;0;0
7.1304911381488667;-0.0009801714032954894;0;0;0;0;0
7.1368519687805785;-0.0019509032201611295;0;0;0;0;0
7.1432127994122903;-0.0029028467725445727;0;0;0;0;0
7.149573630044002;-0.0038268343236508131;0;0;0;0;0
7.1559344606757138;-0.0047139673682598613;0;0;0;0;0
7.1622952913074256;-0.0055557023301958811;0;0;0;0;0
7.1686561219391374;-0.0063439328416364038;0;0;0;0;0
7.1750169525708491;-0.0070710678118654008;0;0;0;0;0
7.1813777832025609;-0.0077301045336272776;0;0;0;0;0
7.1877386138342727;-0.00831469612302543;0;0;0;0;0
7.1940994444659845;-0.0088192126434835129;0;0;0;0;0
7.2004602750976963;-0.0092387953251128214;0;0;0;0;0
7.206821105729408;-0.009569403357322084;0;0;0;0;0
7.2131819363611198;-0.0098078528040322945;0;0;0;0;0
7.2195427669928316;-0.0099518472667219603;0;0;0;0;0
7.2259035976245434;-0.01;0;0;0;0;0
7.2322644282562552;-0.0099518472667219724;0;0;0;0;0
7.2386252588879669;-0.009807852804032317;0;0;0;0;0
7.2449860895196787;-0.0095694033573221187;0;0;0;0;0
7.2513469201513905;-0.0092387953251128682;0;0;0;0;0
7.2577077507831023;-0.0088192126434835701;0;0;0;0;0
7.264068581414814;-0.0083146961230254977;0;0;0;0;0
7.2704294120465258;-0.0077301045336273556;0;0;0;0;0
7.2767902426782376;-0.0070710678118654866;0;0;0;0;0
7.2831510733099494;-0.0063439328416364984;0;0;0;0;0
7.2895119039416612;-0.0055557023301959834;0;0;0;0;0
7.2958727345733729;-0.0047139673682599697;0;0;0;0;0
7.3022335652050847;-0.0038268343236509262;0;0;0;0;0
7.3085943958367956;-0.0029028467725446898;0;0;0;0;0
7.3149552264685074;-0.001950903220161389;0;0;0;0;0
7.3213160571002192;-0.00098017140329575265;0;0;0;0;0
7.3276768877319309;-1.8619583192132476e-16;0;0;0;0;0
7.3340377183636427;0.00098017140329552345;0;0;0;0;0
7.3403985489953545;0.0019509032201611631;0;0;0;0;0
7.3467593796270663;0.0029028467725444695;0;0;0;0;0
7.353120210258778;0.0038268343236508447;0;0;0;0;0
7.3594810408904898;0.0047139673682598917;0;0;0;0;0
7.3658418715222016;0.0055557023301959097;0;0;0;0;0
7.3722027021539134;0.0063439328416364307;0;0;0;0;0
7.3785635327856252;0.007071067811865425;0;0;0;0;0
7.3849243634173369;0.0077301045336273001;0;0;0;0;0
7.3912851940490487;0.0083146961230254491;0;0;0;0;0
7.3976460246807605;0.0088192126434835285;0;0;0;0;0
7.4040068553124723;0.0092387953251128353;0;0;0;0;0
7.410367685944184;0.0095694033573220528;0;0;0;0;0
7.4167285165758958;0.0098078528040323014;0;0;0;0;0
7.4230893472076076;0.009951847266721962;0;0;0;0;0
7.4294501778393194;0.01;0;0;0;0;0
7.4358110084710312;0.0099518472667219689;0;0;0;0;0
7.4421718391027429;0.0098078528040323118;0;0;0;0;0
7.4485326697344547;0.00956940335732211;0;0;0;0;0
7.4548935003661665;0.0092387953251128561;0;0;0;0;0
7.4612543309978783;0.0088192126434835545;0;0;0;0;0
7.46761516162959;0.0083146961230254786;0;0;0;0;0
7.4739759922613018;0.0077301045336273348;0;0;0;0;0
7.4803368228930136;0.0070710678118654641;0;0;0;0;0
7.4866976535247245;0.0063439328416365817;0;0;0;0;0
7.4930584841564363;0.0055557023301960728;0;0;0;0;0
7.499419314788148;0.0047139673682600643;0;0;0;0;0
7.5057801454198598;0.0038268343236510256;0;0;0;0;0
7.5121409760515716;0.0029028467725447931;0;0;0;0;0
7.5185018066832834;0.0019509032201613554;0;0;0;0;0
7.5248626373149952;0.00098017140329571839;0;0;0;0;0
7.5312234679467069;1.5189334193246709e-16;0;0;0;0;0
7.5375842985784187;-0.00098017140329555771;0;0;0;0;0
7.5439451292101305;-0.0019509032201611967;0;0;0;0;0
7.5503059598418423;-0.0029028467725445029;0;0;0;0;0
7.5566667904735541;-0.0038268343236508764;0;0;0;0;0
7.5630276211052658;-0.0047139673682599212;0;0;0;0;0
7.5693884517369776;-0.0055557023301959383;0;0;0;0;0
7.5757492823686894;-0.0063439328416364576;0;0;0;0;0
7.5821101130004012;-0.0070710678118654493;0;0;0;0;0
7.5884709436321129;-0.0077301045336273209;0;0;0;0;0
7.5948317742638247;-0.0083146961230253884;0;0;0;0;0
7.6011926048955365;-0.0088192126434835458;0;0;0;0;0
7.6075534355272483;-0.0092387953251128491;0;0;0;0;0
7.6139142661589601;-0.0095694033573220632;0;0;0;0;0
7.6202750967906718;-0.0098078528040323083;0;0;0;0;0
7.6266359274223836;-0.0099518472667219655;0;0;0;0;0
7.6329967580540954;-0.01;0;0;0;0;0
7.6393575886858072;-0.0099518472667219655;0;0;0;0;0
7.6457184193175189;-0.0098078528040323049;0;0;0;0;0
7.6520792499492307;-0.0095694033573220996;0;0;0;0;0
7.6584400805809416;-0.0092387953251128977;0;0;0;0;0
7.6648009112126534;-0.0088192126434836048;0;0;0;0;0
7.6711617418443652;-0.0083146961230255393;0;0;0;0;0
7.6775225724760769;-0.0077301045336274025;0;0;0;0;0
7.6838834031077887;-0.0070710678118655395;0;0;0;0;0
7.6902442337395005;-0.0063439328416365548;0;0;0;0;0
7.6966050643712123;-0.005555702330196163;0;0;0;0;0
7.7029658950029241;-0.0047139673682600339;0;0;0;0;0
7.7093267256346358;-0.0038268343236509939;0;0;0;0;0
7.7156875562663476;-0.0029028467725447605;0;0;0;0;0
7.7220483868980594;-0.0019509032201613216;0;0;0;0;0
7.7284092175297712;-0.00098017140329568434;0;0;0;0;0
7.7347700481614829;-1.1759085194360945e-16;0;0;0;0;0
7.7411308787931947;0.00098017140329559175;0;0;0;0;0
7.7474917094249065;0.0019509032201612303;0;0;0;0;0
7.7538525400566183;0.0029028467725445354;0;0;0;0;0
7.7602133706883301;0.003826834323650908;0;0;0;0;0
7.7665742013200418;0.0047139673682599524;0;0;0;0;0
7.7729350319517536;0.0055557023301959661;0;0;0;0;0
7.7792958625834654;0.0063439328416363744;0;0;0;0;0
7.7856566932151772;0.0070710678118654736;0;0;0;0;0
7.7920175238468889;0.0077301045336273435;0;0;0;0;0
7.7983783544786007;0.0083146961230254075;0;0;0;0;0
7.8047391851103125;0.0088192126434835615;0;0;0;0;0
7.8111000157420243;0.0092387953251128613;0;0;0;0;0
7.8174608463737361;0.0095694033573220736;0;0;0;0;0
7.8238216770054478;0.0098078528040323153;0;0;0;0;0
7.8301825076371596;0.0099518472667219689;0;0;0;0;0
7.8365433382688705;0.01;0;0;0;0;0
7.8429041689005823;0.0099518472667219759;0;0;0;0;0
7.8492649995322941;0.0098078528040323257;0;0;0;0;0
7.8556258301640058;0.0095694033573221326;0;0;0;0;0
7.8619866607957176;0.0092387953251129393;0;0;0;0;0
7.8683474914274294;0.0088192126434835892;0;0;0;0;0
7.8747083220591412;0.0083146961230255185;0;0;0;0;0
7.881069152690853;0.007730104533627471;0;0;0;0;0
7.8874299833225647;0.0070710678118655144;0;0;0;0;0
7.8937908139542765;0.0063439328416365279;0;0;0;0;0
7.9001516445859883;0.0055557023301961344;0;0;0;0;0
7.9065124752177001;0.0047139673682600036;0;0;0;0;0
7.9128733058494118;0.0038268343236509622;0;0;0;0;0
7.9192341364811236;0.0029028467725447276;0;0;0;0;0
7.9255949671128354;0.001950903220161288;0;0;0;0;0
7.9319557977445472;0.00098017140329565008;0;0;0;0;0
7.938316628376259;8.3288361954751784e-17;0;0;0;0;0
7.9446774590079707;-0.00098017140329548441;0;0;0;0;0
7.9510382896396825;-0.0019509032201612641;0;0;0;0;0
7.9573991202713943;-0.0029028467725445684;0;0;0;0;0
7.9637599509031061;-0.0038268343236508087;0;0;0;0;0
7.9701207815348178;-0.0047139673682599819;0;0;0;0;0
7.9764816121665296;-0.0055557023301959956;0;0;0;0;0
7.9828424427982414;-0.0063439328416363995;0;0;0;0;0
7.9892032734299532;-0.0070710678118654979;0;0;0;0;0
7.995564104061665;-0.007730104533627366;0;0;0;0;0
8.0019249346933758;-0.0083146961230253485;0;0;0;0;0
8.0082857653250876;-0.0088192126434835112;0;0;0;0;0
8.0146465959567994;-0.0092387953251128214;0;0;0;0;0
8.0210074265885112;-0.0095694033573220424;0;0;0;0;0
8.027368257220223;-0.0098078528040322927;0;0;0;0;0
8.0337290878519347;-0.0099518472667219603;0;0;0;0;0
8.0400899184836465;-0.01;0;0;0;0;0
8.0464507491153583;-0.0099518472667219863;0;0;0;0;0
8.0528115797470701;-0.0098078528040323187;0;0;0;0;0
8.0591724103787818;-0.0095694033573221222;0;0;0;0;0
8.0655332410104936;-0.0092387953251129255;0;0;0;0;0
8.0718940716422054;-0.0088192126434835736;0;0;0;0;0
8.0782549022739172;-0.0083146961230254994;0;0;0;0;0
8.084615732905629;-0.0077301045336274493;0;0;0;0;0
8.0909765635373407;-0.0070710678118654918;0;0;0;0;0
8.0973373941690525;-0.0063439328416365027;0;0;0;0;0
8.1036982248007643;-0.0055557023301961049;0;0;0;0;0
8.1100590554324761;-0.0047139673682599741;0;0;0;0;0
8.1164198860641878;-0.0038268343236509306;0;0;0;0;0
8.1227807166958996;-0.002902846772544695;0;0;0;0;0
8.1291415473276114;-0.0019509032201613938;0;0;0;0;0
8.1355023779593232;-0.00098017140329561604;0;0;0;0;0
8.141863208591035;-4.8985871965894131e-17;0;0;0;0;0
8.1482240392227467;0.00098017140329551868;0;0;0;0;0
8.1545848698544585;0.0019509032201612978;0;0;0;0;0
8.1609457004861703;0.0029028467725446014;0;0;0;0;0
8.1673065311178821;0.0038268343236508404;0;0;0;0;0
8.1736673617495939;0.0047139673682600122;0;0;0;0;0
8.1800281923813056;0.0055557023301960242;0;0;0;0;0
8.1863890230130174;0.0063439328416364264;0;0;0;0;0
8.1927498536447292;0.0070710678118655222;0;0;0;0;0
8.199110684276441;0.0077301045336273869;0;0;0;0;0
8.2054715149081527;0.0083146961230254456;0;0;0;0;0
8.2118323455398645;0.0088192126434835268;0;0;0;0;0
8.2181931761715763;0.0092387953251128873;0;0;0;0;0
8.2245540068032881;0.0095694033573220927;0;0;0;0;0
8.2309148374349999;0.0098078528040322997;0;0;0;0;0
8.2372756680667116;0.0099518472667219776;0;0;0;0;0
8.2436364986984234;0.01;0;0;0;0;0
8.2499973293301352;0.0099518472667219689;0;0;0;0;0
8.256358159961847;0.009807852804032284;0;0;0;0;0
8.2627189905935587;0.0095694033573220701;0;0;0;0;0
8.2690798212252705;0.0092387953251128578;0;0;0;0;0
8.2754406518569805;0.0088192126434836239;0;0;0;0;0
8.2818014824886923;0.0083146961230255601;0;0;0;0;0
8.2881623131204041;0.0077301045336275178;0;0;0;0;0
8.2945231437521159;0.0070710678118655673;0;0;0;0;0
8.3008839743838276;0.0063439328416366961;0;0;0;0;0
8.3072448050155394;0.0055557023301961951;0;0;0;0;0
8.3136056356472512;0.0047139673682600686;0;0;0;0;0
8.319966466278963;0.0038268343236511617;0;0;0;0;0
8.3263272969106747;0.0029028467725447983;0;0;0;0;0
8.3326881275423865;0.0019509032201613602;0;0;0;0;0
8.3390489581740983;0.00098017140329586475;0;0;0;0;0
8.3454097888058101;1.5679192912905649e-16;0;0;0;0;0
8.3517706194375219;-0.00098017140329555272;0;0;0;0;0
8.3581314500692336;-0.0019509032201610527;0;0;0;0;0
8.3644922807009454;-0.0029028467725444977;0;0;0;0;0
8.3708531113326572;-0.0038268343236508716;0;0;0;0;0
8.377213941964369;-0.0047139673682597919;0;0;0;0;0
8.3835747725960807;-0.005555702330195934;0;0;0;0;0
8.3899356032277925;-0.0063439328416364524;0;0;0;0;0
8.3962964338595043;-0.0070710678118653461;0;0;0;0;0
8.4026572644912161;-0.0077301045336273192;0;0;0;0;0
8.4090180951229279;-0.0083146961230254647;0;0;0;0;0
8.4153789257546396;-0.0088192126434834765;0;0;0;0;0
8.4217397563863514;-0.0092387953251128457;0;0;0;0;0
8.4281005870180632;-0.0095694033573221031;0;0;0;0;0
8.434461417649775;-0.0098078528040322788;0;0;0;0;0
8.4408222482814868;-0.0099518472667219655;0;0;0;0;0
8.4471830789131985;-0.01;0;0;0;0;0
8.4535439095449103;-0.0099518472667219793;0;0;0;0;0
8.4599047401766221;-0.0098078528040323049;0;0;0;0;0
8.4662655708083339;-0.009569403357322143;0;0;0;0;0
8.4726264014400456;-0.0092387953251128994;0;0;0;0;0
8.4789872320717574;-0.0088192126434835406;0;0;0;0;0
8.4853480627034692;-0.008314696123025541;0;0;0;0;0
8.491708893335181;-0.0077301045336274059;0;0;0;0;0
8.4980697239668928;-0.0070710678118654424;0;0;0;0;0
8.5044305545986045;-0.0063439328416365591;0;0;0;0;0
8.5107913852303163;-0.0055557023301960485;0;0;0;0;0
8.5171522158620281;-0.0047139673682599133;0;0;0;0;0
8.5235130464937399;-0.0038268343236509982;0;0;0;0;0
8.5298738771254516;-0.0029028467725446296;0;0;0;0;0
8.5362347077571634;-0.0019509032201611869;0;0;0;0;0
8.5425955383888752;-0.00098017140329568911;0;0;0;0;0
8.548956369020587;1.9619108011821185e-17;0;0;0;0;0
8.5553171996522988;0.00098017140329572836;0;0;0;0;0
8.5616780302840105;0.0019509032201612255;0;0;0;0;0
8.5680388609157223;0.0029028467725446669;0;0;0;0;0
8.5743996915474341;0.0038268343236510351;0;0;0;0;0
8.5807605221791459;0.004713967368259948;0;0;0;0;0
8.5871213528108576;0.0055557023301960806;0;0;0;0;0
8.5934821834425694;0.0063439328416365895;0;0;0;0;0
8.5998430140742812;0.0070710678118654701;0;0;0;0;0
8.606203844705993;0.0077301045336274302;0;0;0;0;0
8.6125646753377048;0.008314696123025404;0;0;0;0;0
8.6189255059694165;0.0088192126434835597;0;0;0;0;0
8.6252863366011283;0.0092387953251129151;0;0;0;0;0
8.6316471672328383;0.0095694033573219886;0;0;0;0;0
8.6380079978645501;0.009807852804032258;0;0;0;0;0
8.6443688284962619;0.0099518472667219551;0;0;0;0;0
8.6507296591279736;0.01;0;0;0;0;0
8.6570904897596854;0.0099518472667219898;0;0;0;0;0
8.6634513203913972;0.0098078528040323274;0;0;0;0;0
8.669812151023109;0.0095694033573221742;0;0;0;0;0
8.6761729816548208;0.0092387953251129411;0;0;0;0;0
8.6825338122865325;0.0088192126434835909;0;0;0;0;0
8.6888946429182443;0.0083146961230256018;0;0;0;0;0
8.6952554735499561;0.0077301045336274745;0;0;0;0;0
8.7016163041816679;0.0070710678118655196;0;0;0;0;0
8.7079771348133796;0.0063439328416366424;0;0;0;0;0
8.7143379654450914;0.0055557023301961387;0;0;0;0;0
8.7206987960768032;0.0047139673682600079;0;0;0;0;0
8.727059626708515;0.0038268343236510984;0;0;0;0;0
8.7334204573402268;0.0029028467725447328;0;0;0;0;0
8.7397812879719385;0.0019509032201612928;0;0;0;0;0
8.7461421186036503;0.00098017140329579645;0;0;0;0;0
8.7525029492353621;8.8186949151341198e-17;0;0;0;0;0
8.7588637798670739;-0.00098017140329562102;0;0;0;0;0
8.7652246104987857;-0.0019509032201611199;0;0;0;0;0
8.7715854411304974;-0.0029028467725445632;0;0;0;0;0
8.7779462717622092;-0.0038268343236509349;0;0;0;0;0
8.784307102393921;-0.0047139673682598526;0;0;0;0;0
8.7906679330256328;-0.0055557023301959904;0;0;0;0;0
8.7970287636573445;-0.0063439328416362859;0;0;0;0;0
8.8033895942890563;-0.0070710678118653938;0;0;0;0;0
8.8097504249207681;-0.0077301045336273626;0;0;0;0;0
8.8161112555524799;-0.008314696123025345;0;0;0;0;0
8.8224720861841917;-0.0088192126434835077;0;0;0;0;0
8.8288329168159034;-0.0092387953251128734;0;0;0;0;0
8.8351937474476152;-0.0095694033573220406;0;0;0;0;0
8.841554578079327;-0.0098078528040322927;0;0;0;0;0
8.8479154087110388;-0.0099518472667219724;0;0;0;0;0
8.8542762393427505;-0.01;0;0;0;0;0
8.8606370699744623;-0.0099518472667219724;0;0;0;0;0
8.8669979006061741;-0.0098078528040322927;0;0;0;0;0
8.8733587312378859;-0.0095694033573221222;0;0;0;0;0
8.8797195618695977;-0.0092387953251128734;0;0;0;0;0
8.8860803925013094;-0.0088192126434835077;0;0;0;0;0
8.8924412231330212;-0.0083146961230255029;0;0;0;0;0
8.898802053764733;-0.0077301045336273626;0;0;0;0;0
8.9051628843964448;-0.0070710678118653938;0;0;0;0;0
8.9115237150281565;-0.0063439328416365062;0;0;0;0;0
8.9178845456598683;-0.0055557023301959904;0;0;0;0;0
8.9242453762915801;-0.0047139673682598526;0;0;0;0;0
8.9306062069232919;-0.0038268343236509349;0;0;0;0;0
8.9369670375550037;-0.0029028467725445632;0;0;0;0;0
8.9433278681867154;-0.0019509032201611199;0;0;0;0;0
8.9496886988184272;-0.00098017140329562081;0;0;0;0;0
8.956049529450139;8.8224087989536495e-17;0;0;0;0;0
8.9624103600818508;0.00098017140329551369;0;0;0;0;0
8.9687711907135625;0.001950903220161293;0;0;0;0;0
8.9751320213452743;0.0029028467725447328;0;0;0;0;0
8.9814928519769843;0.0038268343236505732;0;0;0;0;0
8.9878536826086961;0.0047139673682597581;0;0;0;0;0
8.9942145132404079;0.0055557023301959019;0;0;0;0;0
9.0005753438721197;0.0063439328416362026;0;0;0;0;0
9.0069361745038314;0.0070710678118653184;0;0;0;0;0
9.0132970051355432;0.0077301045336272932;0;0;0;0;0
9.019657835767255;0.008314696123025286;0;0;0;0;0
9.0260186663989668;0.0088192126434834574;0;0;0;0;0
9.0323794970306786;0.0092387953251128318;0;0;0;0;0
9.0387403276623903;0.0095694033573220077;0;0;0;0;0
9.0451011582941021;0.0098078528040322719;0;0;0;0;0
9.0514619889258139;0.009951847266721962;0;0;0;0;0
9.0578228195575257;0.01;0;0;0;0;0
9.0641836501892374;0.0099518472667219846;0;0;0;0;0
9.0705444808209492;0.0098078528040323135;0;0;0;0;0
9.076905311452661;0.0095694033573221534;0;0;0;0;0
9.0832661420843728;0.0092387953251129151;0;0;0;0;0
9.0896269727160846;0.008819212643483558;0;0;0;0;0
9.0959878033477963;0.0083146961230255636;0;0;0;0;0
9.1023486339795081;0.0077301045336274302;0;0;0;0;0
9.1087094646112199;0.0070710678118654701;0;0;0;0;0
9.1150702952429317;0.0063439328416365895;0;0;0;0;0
9.1214311258746434;0.0055557023301960806;0;0;0;0;0
9.1277919565063552;0.004713967368259948;0;0;0;0;0
9.134152787138067;0.0038268343236510347;0;0;0;0;0
9.1405136177697788;0.0029028467725446669;0;0;0;0;0
9.1468744484014906;0.0019509032201615042;0;0;0;0;0
9.1532352790332023;0.00098017140329572814;0;0;0;0;0
9.1595961096649141;1.9581969173625882e-17;0;0;0;0;0
9.1659569402966259;-0.00098017140329540635;0;0;0;0;0
9.1723177709283377;-0.0019509032201611874;0;0;0;0;0
9.1786786015600494;-0.0029028467725446296;0;0;0;0;0
9.1850394321917612;-0.0038268343236507359;0;0;0;0;0
9.191400262823473;-0.0047139673682599133;0;0;0;0;0
9.1977610934551848;-0.0055557023301960485;0;0;0;0;0
9.2041219240868966;-0.0063439328416363397;0;0;0;0;0
9.2104827547186083;-0.0070710678118654424;0;0;0;0;0
9.2168435853503201;-0.0077301045336274059;0;0;0;0;0
9.2232044159820319;-0.0083146961230253832;0;0;0;0;0
9.2295652466137437;-0.0088192126434835406;0;0;0;0;0
9.2359260772454554;-0.0092387953251128994;0;0;0;0;0
9.2422869078771672;-0.0095694033573220615;0;0;0;0;0
9.248647738508879;-0.0098078528040323049;0;0;0;0;0
9.2550085691405908;-0.0099518472667219793;0;0;0;0;0
9.2613693997723026;-0.01;0;0;0;0;0
9.2677302304040143;-0.0099518472667219655;0;0;0;0;0
9.2740910610357261;-0.0098078528040322788;0;0;0;0;0
9.2804518916674379;-0.0095694033573221031;0;0;0;0;0
9.2868127222991497;-0.0092387953251128457;0;0;0;0;0
9.2931735529308614;-0.0088192126434834765;0;0;0;0;0
9.2995343835625732;-0.0083146961230254647;0;0;0;0;0
9.305895214194285;-0.0077301045336273192;0;0;0;0;0
9.3122560448259968;-0.0070710678118655473;0;0;0;0;0
9.3186168754577086;-0.0063439328416364524;0;0;0;0;0
9.3249777060894203;-0.005555702330195934;0;0;0;0;0
