#Time;LinearAccX;LinearAccY;LinearAccZ;AngularAccX;AngularAccY;AngularAccZ
0;0;0;0;0;0;0
0.0081873837781824919;0.00098017140329560585;0;0;0;0;0
0.016374767556364984;0.0019509032201612821;0;0;0;0;0
0.024562151334547477;0.0029028467725446235;0;0;0;0;0
0.032749535112729967;0.0038268343236508972;0;0;0;0;0
0.040936918890912458;0.0047139673682599758;0;0;0;0;0
0.049124302669094955;0.0055557023301960216;0;0;0;0;0
0.057311686447277445;0.006343932841636455;0;0;0;0;0
0.065499070225459935;0.0070710678118654745;0;0;0;0;0
0.073686454003642432;0.0077301045336273704;0;0;0;0;0
0.081873837781824915;0.0083146961230254508;0;0;0;0;0
0.090061221560007412;0.0088192126434835493;0;0;0;0;0
0.098248605338189909;0.0092387953251128682;0;0;0;0;0
0.10643598911637239;0.0095694033573220892;0;0;0;0;0
0.11462337289455489;0.0098078528040323049;0;0;0;0;0
0.12281075667273737;0.0099518472667219689;0;0;0;0;0
0.13099814045091987;0.01;0;0;0;0;0
0.13918552422910235;0.0099518472667219689;0;0;0;0;0
0.14737290800728486;0.0098078528040323049;0;0;0;0;0
0.15556029178546735;0.0095694033573220892;0;0;0;0;0
0.16374767556364983;0.0092387953251128682;0;0;0;0;0
0.17193505934183234;0.0088192126434835511;0;0;0;0;0
0.18012244312001482;0.0083146961230254543;0;0;0;0;0
0.18830982689819731;0.0077301045336273713;0;0;0;0;0
0.19649721067637982;0.0070710678118654762;0;0;0;0;0
0.2046845944545623;0.0063439328416364585;0;0;0;0;0
0.21287197823274479;0.0055557023301960251;0;0;0;0;0
0.22105936201092727;0.0047139673682599827;0;0;0;0;0
0.22924674578910978;0.0038268343236508989;0;0;0;0;0
0.23743412956729226;0.0029028467725446278;0;0;0;0;0
0.24562151334547475;0.001950903220161286;0;0;0;0;0
0.25380889712365723;0.00098017140329561278;0;0;0;0;0
0.26199628090183974;5.6655388976479798e-18;0;0;0;0;0
0.27018366468002225;-0.00098017140329560585;0;0;0;0;0
0.27837104845820471;-0.001950903220161275;0;0;0;0;0
0.28655843223638722;-0.0029028467725446213;0;0;0;0;0
0.29474581601456973;-0.0038268343236508968;0;0;0;0;0
0.30293319979275218;-0.0047139673682599723;0;0;0;0;0
0.31112058357093469;-0.0055557023301960199;0;0;0;0;0
0.31930796734911721;-0.0063439328416364524;0;0;0;0;0
0.32749535112729966;-0.007071067811865471;0;0;0;0;0
0.33568273490548217;-0.0077301045336273669;0;0;0;0;0
0.34387011868366468;-0.0083146961230254526;0;0;0;0;0
0.35205750246184714;-0.0088192126434835493;0;0;0;0;0
0.36024488624002965;-0.0092387953251128647;0;0;0;0;0
0.36843227001821216;-0.0095694033573220892;0;0;0;0;0
0.37661965379639462;-0.0098078528040323031;0;0;0;0;0
0.38480703757457713;-0.0099518472667219689;0;0;0;0;0
0.39299442135275964;-0.01;0;0;0;0;0
0.40118180513094209;-0.0099518472667219689;0;0;0;0;0
0.4093691889091246;-0.0098078528040323066;0;0;0;0;0
0.41755657268730706;-0.0095694033573220909;0;0;0;0;0
0.42574395646548957;-0.00923879532511287;0;0;0;0;0
0.43393134024367208;-0.0088192126434835511;0;0;0;0;0
0.44211872402185454;-0.0083146961230254595;0;0;0;0;0
0.45030610780003705;-0.0077301045336273747;0;0;0;0;0
0.45849349157821956;-0.0070710678118654771;0;0;0;0;0
0.46668087535640201;-0.0063439328416364663;0;0;0;0;0
0.47486825913458452;-0.0055557023301960294;0;0;0;0;0
0.48305564291276704;-0.0047139673682599793;0;0;0;0;0
0.49124302669094949;-0.0038268343236509041;0;0;0;0;0
0.499430410469132;-0.0029028467725446335;0;0;0;0;0
0.50761779424731446;-0.0019509032201612958;0;0;0;0;0
0.51580517802549697;-0.00098017140329561387;0;0;0;0;0
0.52399256180367948;-1.133107779529596e-17;0;0;0;0;0
0.53217994558186199;0.00098017140329560021;0;0;0;0;0
0.5403673293600445;0.0019509032201612826;0;0;0;0;0
0.5485547131382269;0.0029028467725446118;0;0;0;0;0
0.55674209691640941;0.0038268343236508829;0;0;0;0;0
0.56492948069459192;0.004713967368259968;0;0;0;0;0
0.57311686447277443;0.0055557023301960181;0;0;0;0;0
0.58130424825095695;0.0063439328416364481;0;0;0;0;0
0.58949163202913946;0.0070710678118654736;0;0;0;0;0
0.59767901580732186;0.00773010453362736;0;0;0;0;0
0.60586639958550437;0.0083146961230254474;0;0;0;0;0
0.61405378336368688;0.0088192126434835441;0;0;0;0;0
0.62224116714186939;0.0092387953251128647;0;0;0;0;0
0.6304285509200519;0.0095694033573220857;0;0;0;0;0
0.63861593469823441;0.0098078528040323031;0;0;0;0;0
0.64680331847641681;0.0099518472667219672;0;0;0;0;0
0.65499070225459932;0.01;0;0;0;0;0
0.66317808603278183;0.0099518472667219707;0;0;0;0;0
0.67136546981096434;0.0098078528040323066;0;0;0;0;0
0.67955285358914685;0.0095694033573220927;0;0;0;0;0
0.68774023736732937;0.0092387953251128682;0;0;0;0;0
0.69592762114551177;0.0088192126434835597;0;0;0;0;0
0.70411500492369428;0.008314696123025456;0;0;0;0;0
0.71230238870187679;0.0077301045336273756;0;0;0;0;0
0.7204897724800593;0.007071067811865484;0;0;0;0;0
0.72867715625824181;0.0063439328416364672;0;0;0;0;0
0.73686454003642432;0.0055557023301960233;0;0;0;0;0
0.74505192381460672;0.0047139673682599966;0;0;0;0;0
0.75323930759278923;0.003826834323650905;0;0;0;0;0
0.76142669137097174;0.0029028467725446343;0;0;0;0;0
0.76961407514915425;0.0019509032201612973;0;0;0;0;0
0.77780145892733676;0.00098017140329560628;0;0;0;0;0
0.78598884270551928;3.6739403974420592e-18;0;0;0;0;0
0.79417622648370167;-0.00098017140329558134;0;0;0;0;0
0.80236361026188419;-0.0019509032201612726;0;0;0;0;0
0.8105509940400667;-0.0029028467725446105;0;0;0;0;0
0.81873837781824921;-0.003826834323650882;0;0;0;0;0
0.82692576159643172;-0.0047139673682599741;0;0;0;0;0
0.83511314537461412;-0.0055557023301960034;0;0;0;0;0
0.84330052915279663;-0.0063439328416364472;0;0;0;0;0
0.85148791293097914;-0.0070710678118654658;0;0;0;0;0
0.85967529670916165;-0.0077301045336273591;0;0;0;0;0
0.86786268048734416;-0.0083146961230254508;0;0;0;0;0
0.87605006426552667;-0.0088192126434835493;0;0;0;0;0
0.88423744804370907;-0.0092387953251128578;0;0;0;0;0
0.89242483182189158;-0.0095694033573220857;0;0;0;0;0
0.9006122156000741;-0.0098078528040323014;0;0;0;0;0
0.90879959937825661;-0.0099518472667219672;0;0;0;0;0
0.91698698315643912;-0.01;0;0;0;0;0
0.92517436693462163;-0.0099518472667219689;0;0;0;0;0
0.93336175071280403;-0.0098078528040323101;0;0;0;0;0
0.94154913449098654;-0.0095694033573220927;0;0;0;0;0
0.94973651826916905;-0.0092387953251128734;0;0;0;0;0
0.95792390204735156;-0.0088192126434835615;0;0;0;0;0
0.96611128582553407;-0.008314696123025456;0;0;0;0;0
0.97429866960371658;-0.0077301045336273756;0;0;0;0;0
0.98248605338189898;-0.0070710678118654849;0;0;0;0;0
0.99067343716008149;-0.006343932841636468;0;0;0;0;0
0.998860820938264;-0.0055557023301960398;0;0;0;0;0
1.0070482047164464;-0.0047139673682599975;0;0;0;0;0
1.0152355884946289;-0.0038268343236509228;0;0;0;0;0
1.0234229722728114;-0.002902846772544653;0;0;0;0;0
1.0316103560509939;-0.0019509032201612984;0;0;0;0;0
1.0397977398291764;-0.00098017140329562514;0;0;0;0;0
1.047985123607359;-2.2662155590591919e-17;0;0;0;0;0
1.0561725073855415;0.00098017140329559782;0;0;0;0;0
1.064359891163724;0.0019509032201612715;0;0;0;0;0
1.0725472749419065;0.0029028467725446096;0;0;0;0;0
1.080734658720089;0.0038268343236508972;0;0;0;0;0
1.0889220424982715;0.0047139673682599732;0;0;0;0;0
1.0971094262764538;0.0055557023301960017;0;0;0;0;0
1.1052968100546363;0.0063439328416364325;0;0;0;0;0
1.1134841938328188;0.0070710678118654528;0;0;0;0;0
1.1216715776110013;0.0077301045336273591;0;0;0;0;0
1.1298589613891838;0.0083146961230254422;0;0;0;0;0
1.1380463451673664;0.0088192126434835389;0;0;0;0;0
1.1462337289455489;0.0092387953251128647;0;0;0;0;0
1.1544211127237314;0.0095694033573220857;0;0;0;0;0
1.1626084965019139;0.0098078528040323014;0;0;0;0;0
1.1707958802800964;0.0099518472667219689;0;0;0;0;0
1.1789832640582789;0.01;0;0;0;0;0
1.1871706478364614;0.0099518472667219689;0;0;0;0;0
1.1953580316146437;0.0098078528040323101;0;0;0;0;0
1.2035454153928262;0.0095694033573220979;0;0;0;0;0
1.2117327991710087;0.0092387953251128752;0;0;0;0;0
1.2199201829491912;0.0088192126434835615;0;0;0;0;0
1.2281075667273738;0.0083146961230254664;0;0;0;0;0
1.2362949505055563;0.0077301045336273765;0;0;0;0;0
1.2444823342837388;0.0070710678118654858;0;0;0;0;0
1.2526697180619213;0.0063439328416364698;0;0;0;0;0
1.2608571018401038;0.0055557023301960398;0;0;0;0;0
1.2690444856182863;0.0047139673682599827;0;0;0;0;0
1.2772318693964688;0.0038268343236509072;0;0;0;0;0
1.2854192531746513;0.0029028467725446365;0;0;0;0;0
1.2936066369528336;0.0019509032201613168;0;0;0;0;0
1.3017940207310161;0.00098017140329562645;0;0;0;0;0
1.3099814045091986;2.388680238973927e-17;0;0;0;0;0
1.3181687882873812;-0.00098017140329557896;0;0;0;0;0
1.3263561720655637;-0.0019509032201612527;0;0;0;0;0
1.3345435558437462;-0.0029028467725446083;0;0;0;0;0
1.3427309396219287;-0.0038268343236508794;0;0;0;0;0
1.3509183234001112;-0.0047139673682599567;0;0;0;0;0
1.3591057071782937;-0.0055557023301960008;0;0;0;0;0
1.3672930909564762;-0.0063439328416364594;0;0;0;0;0
1.3754804747346587;-0.0070710678118654771;0;0;0;0;0
1.383667858512841;-0.007730104533627347;0;0;0;0;0
1.3918552422910235;-0.00831469612302543;0;0;0;0;0
1.400042626069206;-0.0088192126434835302;0;0;0;0;0
1.4082300098473886;-0.009238795325112863;0;0;0;0;0
1.4164173936255711;-0.0095694033573220857;0;0;0;0;0
1.4246047774037536;-0.0098078528040323014;0;0;0;0;0
1.4327921611819361;-0.0099518472667219672;0;0;0;0;0
1.4409795449601186;-0.01;0;0;0;0;0
1.4491669287383011;-0.0099518472667219724;0;0;0;0;0
1.4573543125164836;-0.0098078528040323118;0;0;0;0;0
1.4655416962946661;-0.0095694033573220892;0;0;0;0;0
1.4737290800728486;-0.0092387953251128682;0;0;0;0;0
1.4819164638510309;-0.0088192126434835701;0;0;0;0;0
1.4901038476292134;-0.0083146961230254769;0;0;0;0;0
1.498291231407396;-0.0077301045336273999;0;0;0;0;0
1.5064786151855785;-0.0070710678118654866;0;0;0;0;0
1.514665998963761;-0.0063439328416364706;0;0;0;0;0
1.5228533827419435;-0.0055557023301960407;0;0;0;0;0
1.531040766520126;-0.0047139673682599992;0;0;0;0;0
1.5392281502983085;-0.0038268343236509249;0;0;0;0;0
1.547415534076491;-0.0029028467725446551;0;0;0;0;0
1.5556029178546735;-0.0019509032201612834;0;0;0;0;0
1.563790301632856;-0.00098017140329560997;0;0;0;0;0
1.5719776854110386;-7.3478807948841184e-18;0;0;0;0;0
1.5801650691892208;0.00098017140329555988;0;0;0;0;0
1.5883524529674033;0.001950903220161234;0;0;0;0;0
1.5965398367455859;0.0029028467725446074;0;0;0;0;0
1.6047272205237684;0.0038268343236508785;0;0;0;0;0
1.6129146043019509;0.0047139673682599558;0;0;0;0;0
1.6211019880801334;0.0055557023301959999;0;0;0;0;0
1.6292893718583159;0.0063439328416364316;0;0;0;0;0
1.6374767556364984;0.0070710678118654511;0;0;0;0;0
1.6456641394146809;0.0077301045336273678;0;0;0;0;0
1.6538515231928634;0.0083146961230254491;0;0;0;0;0
1.6620389069710459;0.0088192126434835458;0;0;0;0;0
1.6702262907492282;0.0092387953251128491;0;0;0;0;0
1.6784136745274107;0.0095694033573220736;0;0;0;0;0
1.6866010583055933;0.0098078528040323014;0;0;0;0;0
1.6947884420837758;0.0099518472667219672;0;0;0;0;0
1.7029758258619583;0.01;0;0;0;0;0
1.7111632096401408;0.0099518472667219724;0;0;0;0;0
1.7193505934183233;0.0098078528040323118;0;0;0;0;0
1.7275379771965058;0.0095694033573220996;0;0;0;0;0
1.7357253609746883;0.0092387953251128682;0;0;0;0;0
1.7439127447528708;0.0088192126434835545;0;0;0;0;0
1.7521001285310533;0.0083146961230254578;0;0;0;0;0
1.7602875123092359;0.0077301045336273791;0;0;0;0;0
1.7684748960874181;0.0070710678118655126;0;0;0;0;0
1.7766622798656007;0.0063439328416364706;0;0;0;0;0
1.7848496636437832;0.0055557023301960416;0;0;0;0;0
1.7930370474219657;0.0047139673682600001;0;0;0;0;0
1.8012244312001482;0.0038268343236509262;0;0;0;0;0
1.8094118149783307;0.002902846772544656;0;0;0;0;0
1.8175991987565132;0.0019509032201613194;0;0;0;0;0
1.8257865825346957;0.00098017140329564661;0;0;0;0;0
1.8339739663128782;8.572527594031472e-18;0;0;0;0;0
1.8421613500910607;-0.00098017140329559414;0;0;0;0;0
1.8503487338692433;-0.0019509032201612678;0;0;0;0;0
1.8585361176474255;-0.0029028467725445719;0;0;0;0;0
1.8667235014256081;-0.0038268343236508447;0;0;0;0;0
1.8749108852037906;-0.0047139673682599541;0;0;0;0;0
1.8830982689819731;-0.0055557023301959982;0;0;0;0;0
1.8912856527601556;-0.0063439328416364307;0;0;0;0;0
1.8994730365383381;-0.0070710678118654502;0;0;0;0;0
1.9076604203165206;-0.0077301045336273444;0;0;0;0;0
1.9158478040947031;-0.00831469612302543;0;0;0;0;0
1.9240351878728856;-0.0088192126434835458;0;0;0;0;0
1.9322225716510681;-0.009238795325112863;0;0;0;0;0
1.9404099554292507;-0.009569403357322084;0;0;0;0;0
1.9485973392074332;-0.0098078528040323014;0;0;0;0;0
1.9567847229856155;-0.009951847266721962;0;0;0;0;0
1.964972106763798;-0.01;0;0;0;0;0
1.9731594905419805;-0.0099518472667219724;0;0;0;0;0
1.981346874320163;-0.0098078528040323118;0;0;0;0;0
1.9895342580983455;-0.0095694033573220996;0;0;0;0;0
1.997721641876528;-0.0092387953251128838;0;0;0;0;0
2.0059090256547103;-0.0088192126434835701;0;0;0;0;0
2.0140964094328928;-0.0083146961230254786;0;0;0;0;0
2.0222837932110753;-0.0077301045336274025;0;0;0;0;0
2.0304711769892578;-0.0070710678118655135;0;0;0;0;0
2.0386585607674403;-0.0063439328416364993;0;0;0;0;0
2.0468459445456229;-0.0055557023301960728;0;0;0;0;0
2.0550333283238054;-0.0047139673682600018;0;0;0;0;0
2.0632207121019879;-0.0038268343236509271;0;0;0;0;0
2.0714080958801704;-0.0029028467725446573;0;0;0;0;0
2.0795954796583529;-0.0019509032201613205;0;0;0;0;0
2.0877828634365354;-0.00098017140329564791;0;0;0;0;0
2.0959702472147179;-4.5324311181183839e-17;0;0;0;0;0
2.1041576309929004;0.00098017140329559284;0;0;0;0;0
2.1123450147710829;0.0019509032201612665;0;0;0;0;0
2.1205323985492655;0.0029028467725446044;0;0;0;0;0
2.128719782327448;0.0038268343236508764;0;0;0;0;0
2.1369071661056305;0.0047139673682599532;0;0;0;0;0
2.145094549883813;0.0055557023301959973;0;0;0;0;0
2.1532819336619955;0.0063439328416364299;0;0;0;0;0
2.161469317440178;0.0070710678118654745;0;0;0;0;0
2.1696567012183605;0.0077301045336273669;0;0;0;0;0
2.177844084996543;0.0083146961230254474;0;0;0;0;0
2.1860314687747255;0.0088192126434835458;0;0;0;0;0
2.1942188525529076;0.0092387953251128491;0;0;0;0;0
2.2024062363310901;0.0095694033573220736;0;0;0;0;0
2.2105936201092726;0.0098078528040322927;0;0;0;0;0
2.2187810038874551;0.009951847266721962;0;0;0;0;0
2.2269683876656376;0.01;0;0;0;0;0
2.2351557714438202;0.0099518472667219724;0;0;0;0;0
2.2433431552220027;0.0098078528040323118;0;0;0;0;0
2.2515305390001852;0.0095694033573220996;0;0;0;0;0
2.2597179227783677;0.0092387953251128838;0;0;0;0;0
2.2679053065565502;0.0088192126434835719;0;0;0;0;0
2.2760926903347327;0.0083146961230254786;0;0;0;0;0
2.2842800741129152;0.0077301045336274025;0;0;0;0;0
2.2924674578910977;0.0070710678118654892;0;0;0;0;0
2.3006548416692802;0.0063439328416364724;0;0;0;0;0
2.3088422254474628;0.0055557023301960442;0;0;0;0;0
2.3170296092256453;0.0047139673682600027;0;0;0;0;0
2.3252169930038278;0.0038268343236509284;0;0;0;0;0
2.3334043767820103;0.0029028467725446582;0;0;0;0;0
2.3415917605601928;0.0019509032201612869;0;0;0;0;0
2.3497791443383753;0.00098017140329561365;0;0;0;0;0
2.3579665281165578;1.1021821192326179e-17;0;0;0;0;0
2.3661539118947403;-0.00098017140329559175;0;0;0;0;0
2.3743412956729228;-0.0019509032201612652;0;0;0;0;0
2.3825286794511049;-0.0029028467725445697;0;0;0;0;0
2.3907160632292874;-0.0038268343236508425;0;0;0;0;0
2.3989034470074699;-0.0047139673682599203;0;0;0;0;0
2.4070908307856524;-0.0055557023301959661;0;0;0;0;0
2.415278214563835;-0.0063439328416364004;0;0;0;0;0
2.4234655983420175;-0.0070710678118654485;0;0;0;0;0
2.4316529821202;-0.0077301045336273435;0;0;0;0;0
2.4398403658983825;-0.0083146961230254283;0;0;0;0;0
2.448027749676565;-0.0088192126434835268;0;0;0;0;0
2.4562151334547475;-0.0092387953251128474;0;0;0;0;0
2.46440251723293;-0.0095694033573220736;0;0;0;0;0
2.4725899010111125;-0.0098078528040322997;0;0;0;0;0
2.480777284789295;-0.0099518472667219655;0;0;0;0;0
2.4889646685674776;-0.01;0;0;0;0;0
2.4971520523456601;-0.0099518472667219724;0;0;0;0;0
2.5053394361238426;-0.0098078528040323118;0;0;0;0;0
2.5135268199020251;-0.0095694033573221014;0;0;0;0;0
2.5217142036802076;-0.0092387953251128838;0;0;0;0;0
2.5299015874583901;-0.0088192126434835545;0;0;0;0;0
2.5380889712365726;-0.0083146961230254595;0;0;0;0;0
2.5462763550147551;-0.0077301045336273808;0;0;0;0;0
2.5544637387929376;-0.0070710678118654901;0;0;0;0;0
2.5626511225711202;-0.0063439328416364741;0;0;0;0;0
2.5708385063493027;-0.005555702330196045;0;0;0;0;0
2.5790258901274847;-0.0047139673682600356;0;0;0;0;0
2.5872132739056672;-0.0038268343236509622;0;0;0;0;0
2.5954006576838498;-0.0029028467725446937;0;0;0;0;0
2.6035880414620323;-0.0019509032201613231;0;0;0;0;0
2.6117754252402148;-0.00098017140329565008;0;0;0;0;0
2.6199628090183973;-4.777360477947854e-17;0;0;0;0;0
2.6281501927965798;0.0009801714032955551;0;0;0;0;0
2.6363375765747623;0.0019509032201612292;0;0;0;0;0
2.6445249603529448;0.0029028467725445684;0;0;0;0;0
2.6527123441311273;0.0038268343236508412;0;0;0;0;0
2.6608997279093098;0.0047139673682599506;0;0;0;0;0
2.6690871116874924;0.0055557023301959956;0;0;0;0;0
2.6772744954656749;0.0063439328416363995;0;0;0;0;0
2.6854618792438574;0.0070710678118654485;0;0;0;0;0
2.6936492630220399;0.007730104533627366;0;0;0;0;0
2.7018366468002224;0.0083146961230254265;0;0;0;0;0
2.7100240305784049;0.0088192126434835441;0;0;0;0;0
2.7182114143565874;0.0092387953251128474;0;0;0;0;0
2.7263987981347699;0.0095694033573220823;0;0;0;0;0
2.7345861819129524;0.0098078528040323066;0;0;0;0;0
2.742773565691135;0.0099518472667219655;0;0;0;0;0
2.7509609494693175;0.01;0;0;0;0;0
2.7591483332475;0.0099518472667219724;0;0;0;0;0
2.767335717025682;0.0098078528040323187;0;0;0;0;0
2.7755231008038646;0.0095694033573221014;0;0;0;0;0
2.7837104845820471;0.0092387953251128994;0;0;0;0;0
2.7918978683602296;0.0088192126434835736;0;0;0;0;0
2.8000852521384121;0.0083146961230254994;0;0;0;0;0
2.8082726359165946;0.0077301045336274042;0;0;0;0;0
2.8164600196947771;0.0070710678118654918;0;0;0;0;0
2.8246474034729596;0.0063439328416365027;0;0;0;0;0
2.8328347872511421;0.0055557023301960459;0;0;0;0;0
2.8410221710293246;0.0047139673682600365;0;0;0;0;0
2.8492095548075071;0.0038268343236509306;0;0;0;0;0
2.8573969385856897;0.002902846772544695;0;0;0;0;0
2.8655843223638722;0.0019509032201613242;0;0;0;0;0
2.8737717061420547;0.00098017140329561604;0;0;0;0;0
2.8819590899202372;4.899825157862589e-17;0;0;0;0;0
2.8901464736984197;-0.00098017140329558937;0;0;0;0;0
2.8983338574766022;-0.0019509032201612281;0;0;0;0;0
2.9065212412547847;-0.0029028467725446014;0;0;0;0;0
2.9147086250329672;-0.0038268343236508404;0;0;0;0;0
2.9228960088111497;-0.0047139673682599498;0;0;0;0;0
2.9310833925893323;-0.0055557023301960242;0;0;0;0;0
2.9392707763675148;-0.0063439328416364264;0;0;0;0;0
2.9474581601456973;-0.007071067811865471;0;0;0;0;0
2.9556455439238793;-0.0077301045336273426;0;0;0;0;0
2.9638329277020619;-0.0083146961230254075;0;0;0;0;0
2.9720203114802444;-0.0088192126434835268;0;0;0;0;0
2.9802076952584269;-0.0092387953251128335;0;0;0;0;0
2.9883950790366094;-0.0095694033573220719;0;0;0;0;0
2.9965824628147919;-0.0098078528040322858;0;0;0;0;0
3.0047698465929744;-0.009951847266721962;0;0;0;0;0
3.0129572303711569;-0.01;0;0;0;0;0
3.0211446141493394;-0.0099518472667219759;0;0;0;0;0
3.0293319979275219;-0.0098078528040323118;0;0;0;0;0
3.0375193817057045;-0.0095694033573221118;0;0;0;0;0
3.045706765483887;-0.0092387953251128856;0;0;0;0;0
3.0538941492620695;-0.0088192126434835563;0;0;0;0;0
3.062081533040252;-0.0083146961230254821;0;0;0;0;0
3.0702689168184345;-0.0077301045336273825;0;0;0;0;0
3.078456300596617;-0.007071067811865517;0;0;0;0;0
3.0866436843747995;-0.0063439328416364758;0;0;0;0;0
3.094831068152982;-0.0055557023301960771;0;0;0;0;0
3.1030184519311645;-0.0047139673682600062;0;0;0;0;0
3.1112058357093471;-0.0038268343236508989;0;0;0;0;0
3.1193932194875296;-0.0029028467725446621;0;0;0;0;0
3.1275806032657121;-0.0019509032201612906;0;0;0;0;0
3.1357679870438946;-0.00098017140329565268;0;0;0;0;0
3.1439553708220771;-1.4695761589768237e-17;0;0;0;0;0
3.1521427546002592;0.00098017140329555272;0;0;0;0;0
3.1603301383784417;0.0019509032201611919;0;0;0;0;0
3.1685175221566242;0.0029028467725445662;0;0;0;0;0
3.1767049059348067;0.0038268343236508061;0;0;0;0;0
3.1848922897129892;0.0047139673682599177;0;0;0;0;0
3.1930796734911717;0.005555702330195993;0;0;0;0;0
3.2012670572693542;0.0063439328416363986;0;0;0;0;0
3.2094544410475367;0.0070710678118654459;0;0;0;0;0
3.2176418248257193;0.0077301045336273192;0;0;0;0;0
3.2258292086039018;0.0083146961230254265;0;0;0;0;0
3.2340165923820843;0.0088192126434835094;0;0;0;0;0
3.2422039761602668;0.0092387953251128457;0;0;0;0;0
3.2503913599384493;0.0095694033573220823;0;0;0;0;0
3.2585787437166318;0.0098078528040322927;0;0;0;0;0
3.2667661274948143;0.0099518472667219655;0;0;0;0;0
3.2749535112729968;0.01;0;0;0;0;0
3.2831408950511793;0.0099518472667219724;0;0;0;0;0
3.2913282788293619;0.0098078528040323049;0;0;0;0;0
3.2995156626075444;0.0095694033573221014;0;0;0;0;0
3.3077030463857269;0.0092387953251128717;0;0;0;0;0
3.3158904301639094;0.0088192126434835736;0;0;0;0;0
3.3240778139420919;0.008314696123025463;0;0;0;0;0
3.3322651977202744;0.0077301045336274059;0;0;0;0;0
3.3404525814984565;0.0070710678118655421;0;0;0;0;0
3.348639965276639;0.0063439328416365036;0;0;0;0;0
3.3568273490548215;0.0055557023301961075;0;0;0;0;0
3.365014732833004;0.0047139673682600391;0;0;0;0;0
3.3732021166111865;0.0038268343236509328;0;0;0;0;0
3.381389500389369;0.0029028467725446972;0;0;0;0;0
3.3895768841675515;0.0019509032201613266;0;0;0;0;0
3.3977642679457341;0.00098017140329568911;0;0;0;0;0
3.4059516517239166;5.1447545176920603e-17;0;0;0;0;0
3.4141390355020991;-0.00098017140329551607;0;0;0;0;0
3.4223264192802816;-0.0019509032201612255;0;0;0;0;0
3.4305138030584641;-0.0029028467725445988;0;0;0;0;0
3.4387011868366466;-0.0038268343236508378;0;0;0;0;0
3.4468885706148291;-0.004713967368259948;0;0;0;0;0
3.4550759543930116;-0.0055557023301959626;0;0;0;0;0
3.4632633381711941;-0.0063439328416364247;0;0;0;0;0
3.4714507219493766;-0.0070710678118654701;0;0;0;0;0
3.4796381057275592;-0.00773010453362734;0;0;0;0;0
3.4878254895057417;-0.0083146961230254439;0;0;0;0;0
3.4960128732839242;-0.008819212643483525;0;0;0;0;0
3.5042002570621067;-0.0092387953251128595;0;0;0;0;0
3.5123876408402892;-0.0095694033573220719;0;0;0;0;0
3.5205750246184717;-0.0098078528040322997;0;0;0;0;0
3.5287624083966538;-0.009951847266721962;0;0;0;0;0
3.5369497921748363;-0.01;0;0;0;0;0
3.5451371759530188;-0.0099518472667219759;0;0;0;0;0
3.5533245597312013;-0.0098078528040323118;0;0;0;0;0
3.5615119435093838;-0.0095694033573221118;0;0;0;0;0
3.5696993272875663;-0.0092387953251128873;0;0;0;0;0
3.5778867110657488;-0.0088192126434835909;0;0;0;0;0
3.5860740948439314;-0.0083146961230254821;0;0;0;0;0
3.5942614786221139;-0.0077301045336274294;0;0;0;0;0
3.6024488624002964;-0.0070710678118655196;0;0;0;0;0
3.6106362461784789;-0.0063439328416364776;0;0;0;0;0
3.6188236299566614;-0.0055557023301960788;0;0;0;0;0
3.6270110137348439;-0.0047139673682600079;0;0;0;0;0
3.6351983975130264;-0.0038268343236509666;0;0;0;0;0
3.6433857812912089;-0.0029028467725446643;0;0;0;0;0
3.6515731650693914;-0.0019509032201613628;0;0;0;0;0
3.659760548847574;-0.00098017140329565507;0;0;0;0;0
3.6679479326257565;-1.7145055188062944e-17;0;0;0;0;0
3.676135316403939;0.00098017140329555033;0;0;0;0;0
3.6843227001821215;0.0019509032201612592;0;0;0;0;0
3.692510083960304;0.0029028467725445632;0;0;0;0;0
3.7006974677384865;0.0038268343236508694;0;0;0;0;0
3.708884851516669;0.0047139673682599784;0;0;0;0;0
3.7170722352948511;0.0055557023301959323;0;0;0;0;0
3.7252596190730336;0.006343932841636396;0;0;0;0;0
3.7334470028512161;0.0070710678118653938;0;0;0;0;0
3.7416343866293986;0.0077301045336273166;0;0;0;0;0
3.7498217704075811;0.0083146961230254248;0;0;0;0;0
3.7580091541857636;0.0088192126434835077;0;0;0;0;0
3.7661965379639462;0.0092387953251128457;0;0;0;0;0
3.7743839217421287;0.0095694033573220615;0;0;0;0;0
3.7825713055203112;0.0098078528040322927;0;0;0;0;0
3.7907586892984937;0.0099518472667219655;0;0;0;0;0
3.7989460730766762;0.01;0;0;0;0;0
3.8071334568548587;0.0099518472667219724;0;0;0;0;0
3.8153208406330412;0.0098078528040323205;0;0;0;0;0
3.8235082244112237;0.0095694033573221014;0;0;0;0;0
3.8316956081894062;0.0092387953251128994;0;0;0;0;0
3.8398829919675888;0.0088192126434835753;0;0;0;0;0
3.8480703757457713;0.008314696123025463;0;0;0;0;0
3.8562577595239538;0.0077301045336274068;0;0;0;0;0
3.8644451433021363;0.0070710678118654944;0;0;0;0;0
3.8726325270803188;0.0063439328416365062;0;0;0;0;0
3.8808199108585013;0.0055557023301960511;0;0;0;0;0
3.8890072946366838;0.00471396736826004;0;0;0;0;0
3.8971946784148663;0.0038268343236509349;0;0;0;0;0
3.9053820621930488;0.0029028467725446317;0;0;0;0;0
3.9135694459712309;0.0019509032201613986;0;0;0;0;0
3.9217568297494134;0.00098017140329569171;0;0;0;0;0
3.9299442135275959;5.3896838775215304e-17;0;0;0;0;0
3.9381315973057784;-0.00098017140329551369;0;0;0;0;0
3.946318981083961;-0.0019509032201612232;0;0;0;0;0
3.9545063648621435;-0.0029028467725445285;0;0;0;0;0
3.962693748640326;-0.0038268343236508356;0;0;0;0;0
3.9708811324185085;-0.0047139673682599454;0;0;0;0;0
3.979068516196691;-0.0055557023301959609;0;0;0;0;0
3.9872558999748735;-0.0063439328416364229;0;0;0;0;0
3.995443283753056;-0.0070710678118654181;0;0;0;0;0
4.0036306675312385;-0.0077301045336273392;0;0;0;0;0
4.0118180513094206;-0.008314696123025404;0;0;0;0;0
4.0200054350876036;-0.0088192126434835233;0;0;0;0;0
4.0281928188657856;-0.0092387953251128318;0;0;0;0;0
4.0363802026439686;-0.0095694033573220701;0;0;0;0;0
4.0445675864221506;-0.009807852804032284;0;0;0;0;0
4.0527549702003336;-0.009951847266721962;0;0;0;0;0
4.0609423539785157;-0.01;0;0;0;0;0
4.0691297377566986;-0.0099518472667219759;0;0;0;0;0
4.0773171215348807;-0.0098078528040323274;0;0;0;0;0
4.0855045053130636;-0.0095694033573220909;0;0;0;0;0
4.0936918890912457;-0.0092387953251129151;0;0;0;0;0
4.1018792728694287;-0.008819212643483558;0;0;0;0;0
4.1100666566476107;-0.0083146961230254855;0;0;0;0;0
4.1182540404257937;-0.007730104533627386;0;0;0;0;0
4.1264414242039757;-0.0070710678118655204;0;0;0;0;0
4.1346288079821587;-0.0063439328416364793;0;0;0;0;0
4.1428161917603408;-0.0055557023301960806;0;0;0;0;0
4.1510035755385237;-0.0047139673682600105;0;0;0;0;0
4.1591909593167058;-0.0038268343236509688;0;0;0;0;0
4.1673783430948887;-0.0029028467725446669;0;0;0;0;0
4.1755657268730708;-0.001950903220161365;0;0;0;0;0
4.1837531106512538;-0.00098017140329558676;0;0;0;0;0
4.1919404944294358;-9.0648622362367677e-17;0;0;0;0;0
4.2001278782076179;0.00098017140329547704;0;0;0;0;0
4.2083152619858009;0.001950903220161257;0;0;0;0;0
4.2165026457639829;0.0029028467725444934;0;0;0;0;0
4.2246900295421659;0.0038268343236508673;0;0;0;0;0
4.2328774133203479;0.0047139673682598509;0;0;0;0;0
4.2410647970985309;0.0055557023301959895;0;0;0;0;0
4.249252180876713;0.0063439328416363943;0;0;0;0;0
4.2574395646548959;0.0070710678118654424;0;0;0;0;0
4.265626948433078;0.0077301045336273157;0;0;0;0;0
4.2738143322112609;0.0083146961230254231;0;0;0;0;0
4.282001715989443;0.0088192126434835077;0;0;0;0;0
4.290189099767626;0.0092387953251128439;0;0;0;0;0
4.298376483545808;0.0095694033573220615;0;0;0;0;0
4.306563867323991;0.009807852804032291;0;0;0;0;0
4.3147512511021731;0.0099518472667219585;0;0;0;0;0
4.322938634880356;0.01;0;0;0;0;0
4.3311260186585381;0.0099518472667219811;0;0;0;0;0
4.339313402436721;0.0098078528040323066;0;0;0;0;0
4.3475007862149031;0.0095694033573221031;0;0;0;0;0
4.3556881699930861;0.0092387953251128734;0;0;0;0;0
4.3638755537712681;0.0088192126434835771;0;0;0;0;0
4.3720629375494511;0.0083146961230254647;0;0;0;0;0
4.3802503213276331;0.0077301045336274085;0;0;0;0;0
4.3884377051058152;0.0070710678118655473;0;0;0;0;0
4.3966250888839982;0.0063439328416365079;0;0;0;0;0
4.4048124726621802;0.0055557023301961118;0;0;0;0;0
4.4129998564403632;0.0047139673682600426;0;0;0;0;0
4.4211872402185453;0.003826834323651003;0;0;0;0;0
4.4293746239967282;0.002902846772544702;0;0;0;0;0
4.4375620077749103;0.001950903220161401;0;0;0;0;0
4.4457493915530932;0.00098017140329562341;0;0;0;0;0
4.4539367753312753;1.2740040594952003e-16;0;0;0;0;0
4.4621241591094583;-0.00098017140329558199;0;0;0;0;0
4.4703115428876403;-0.001950903220161221;0;0;0;0;0
4.4784989266658233;-0.002902846772544594;0;0;0;0;0
4.4866863104440053;-0.0038268343236508334;0;0;0;0;0
4.4948736942221883;-0.0047139673682599428;0;0;0;0;0
4.5030610780003704;-0.0055557023301959583;0;0;0;0;0
4.5112484617785533;-0.0063439328416364203;0;0;0;0;0
4.5194358455567354;-0.0070710678118654172;0;0;0;0;0
4.5276232293349183;-0.0077301045336273366;0;0;0;0;0
4.5358106131131004;-0.0083146961230254023;0;0;0;0;0
4.5439979968912834;-0.0088192126434835233;0;0;0;0;0
4.5521853806694654;-0.0092387953251128318;0;0;0;0;0
4.5603727644476484;-0.0095694033573220909;0;0;0;0;0
4.5685601482258305;-0.009807852804032284;0;0;0;0;0
4.5767475320040125;-0.0099518472667219551;0;0;0;0;0
4.5849349157821955;-0.01;0;0;0;0;0
4.5931222995603775;-0.0099518472667219846;0;0;0;0;0
4.6013096833385605;-0.0098078528040323135;0;0;0;0;0
4.6094970671167426;-0.0095694033573221135;0;0;0;0;0
4.6176844508949255;-0.0092387953251128873;0;0;0;0;0
4.6258718346731076;-0.0088192126434835944;0;0;0;0;0
4.6340592184512905;-0.0083146961230254855;0;0;0;0;0
4.6422466022294726;-0.007730104533627432;0;0;0;0;0
4.6504339860076556;-0.0070710678118655222;0;0;0;0;0
4.6586213697858376;-0.0063439328416365357;0;0;0;0;0
4.6668087535640206;-0.0055557023301960832;0;0;0;0;0
4.6749961373422027;-0.0047139673682600755;0;0;0;0;0
4.6831835211203856;-0.0038268343236509059;0;0;0;0;0
4.6913709048985677;-0.0029028467725447371;0;0;0;0;0
4.6995582886767506;-0.0019509032201612978;0;0;0;0;0
4.7077456724549327;-0.00098017140329566006;0;0;0;0;0
4.7159330562331157;-2.2043642384652358e-17;0;0;0;0;0
4.7241204400112977;0.00098017140329554535;0;0;0;0;0
4.7323078237894807;0.0019509032201612544;0;0;0;0;0
4.7404952075676627;0.0029028467725445589;0;0;0;0;0
4.7486825913458457;0.0038268343236508651;0;0;0;0;0
4.7568699751240278;0.0047139673682599107;0;0;0;0;0
4.7650573589022098;0.0055557023301959288;0;0;0;0;0
4.7732447426803928;0.0063439328416363926;0;0;0;0;0
4.7814321264585748;0.0070710678118653903;0;0;0;0;0
4.7896195102367578;0.0077301045336273131;0;0;0;0;0
4.7978068940149399;0.0083146961230253832;0;0;0;0;0
4.8059942777931228;0.0088192126434835059;0;0;0;0;0
4.8141816615713049;0.0092387953251128162;0;0;0;0;0
4.8223690453494878;0.0095694033573220788;0;0;0;0;0
4.8305564291276699;0.0098078528040322771;0;0;0;0;0
4.8387438129058529;0.0099518472667219655;0;0;0;0;0
4.8469311966840349;0.01;0;0;0;0;0
4.8551185804622179;0.0099518472667219724;0;0;0;0;0
4.8633059642404;0.0098078528040323205;0;0;0;0;0
4.8714933480185829;0.0095694033573221048;0;0;0;0;0
4.879680731796765;0.0092387953251129012;0;0;0;0;0
4.8878681155749479;0.0088192126434835771;0;0;0;0;0
4.89605549935313;0.0083146961230255063;0;0;0;0;0
4.904242883131313;0.0077301045336274103;0;0;0;0;0
4.912430266909495;0.0070710678118655482;0;0;0;0;0
4.920617650687678;0.006343932841636455;0;0;0;0;0
4.92880503446586;0.0055557023301961144;0;0;0;0;0
4.936992418244043;0.0047139673682599819;0;0;0;0;0
4.9451798020222251;0.0038268343236509397;0;0;0;0;0
4.953367185800408;0.0029028467725446361;0;0;0;0;0
4.9615545695785901;0.001950903220161334;0;0;0;0;0
4.9697419533567722;0.00098017140329569648;0;0;0;0;0
4.9779293371349551;5.8795425971804725e-17;0;0;0;0;0
4.9861167209131372;-0.0009801714032955087;0;0;0;0;0
4.9943041046913201;-0.0019509032201612184;0;0;0;0;0
5.0024914884695022;-0.0029028467725445242;0;0;0;0;0
5.0106788722476852;-0.0038268343236508313;0;0;0;0;0
5.0188662560258672;-0.0047139673682598787;0;0;0;0;0
5.0270536398040502;-0.0055557023301959566;0;0;0;0;0
5.0352410235822322;-0.0063439328416363639;0;0;0;0;0
5.0434284073604152;-0.0070710678118654146;0;0;0;0;0
5.0516157911385973;-0.0077301045336272906;0;0;0;0;0
5.0598031749167802;-0.0083146961230254404;0;0;0;0;0
5.0679905586949623;-0.0088192126434834886;0;0;0;0;0
5.0761779424731452;-0.0092387953251128561;0;0;0;0;0
5.0843653262513273;-0.0095694033573220701;0;0;0;0;0
5.0925527100295103;-0.0098078528040322979;0;0;0;0;0
5.1007400938076923;-0.009951847266721962;0;0;0;0;0
5.1089274775858753;-0.01;0;0;0;0;0
5.1171148613640574;-0.0099518472667219776;0;0;0;0;0
5.1253022451422403;-0.0098078528040323153;0;0;0;0;0
5.1334896289204224;-0.0095694033573221135;0;0;0;0;0
5.1416770126986053;-0.009238795325112889;0;0;0;0;0
5.1498643964767874;-0.0088192126434835944;0;0;0;0;0
5.1580517802549695;-0.0083146961230255272;0;0;0;0;0
5.1662391640331524;-0.0077301045336274337;0;0;0;0;0
5.1744265478113345;-0.0070710678118655751;0;0;0;0;0
5.1826139315895174;-0.0063439328416364828;0;0;0;0;0
5.1908013153676995;-0.0055557023301961439;0;0;0;0;0
5.1989886991458825;-0.0047139673682600148;0;0;0;0;0
5.2071760829240645;-0.0038268343236509735;0;0;0;0;0
5.2153634667022475;-0.0029028467725446716;0;0;0;0;0
5.2235508504804296;-0.00195090322016137;0;0;0;0;0
5.2317382342586125;-0.00098017140329566244;0;0;0;0;0
5.2399256180367946;-9.5547209558957079e-17;0;0;0;0;0
5.2481130018149775;0.00098017140329554296;0;0;0;0;0
5.2563003855931596;0.0019509032201611824;0;0;0;0;0
5.2644877693713426;0.0029028467725445567;0;0;0;0;0
5.2726751531495246;0.003826834323650797;0;0;0;0;0
5.2808625369277076;0.004713967368259909;0;0;0;0;0
5.2890499207058896;0.0055557023301959262;0;0;0;0;0
5.2972373044840726;0.0063439328416364446;0;0;0;0;0
5.3054246882622547;0.0070710678118653895;0;0;0;0;0
5.3136120720404376;0.0077301045336273582;0;0;0;0;0
5.3217994558186197;0.0083146961230254196;0;0;0;0;0
5.3299868395968026;0.0088192126434835389;0;0;0;0;0
5.3381742233749847;0.0092387953251128439;0;0;0;0;0
5.3463616071531668;0.009569403357322058;0;0;0;0;0
5.3545489909313497;0.0098078528040322771;0;0;0;0;0
5.3627363747095318;0.0099518472667219516;0;0;0;0;0
5.3709237584877147;0.01;0;0;0;0;0
5.3791111422658968;0.0099518472667219811;0;0;0;0;0
5.3872985260440798;0.0098078528040323083;0;0;0;0;0
5.3954859098222618;0.0095694033573221048;0;0;0;0;0
5.4036732936004448;0.0092387953251129029;0;0;0;0;0
5.4118606773786269;0.0088192126434836118;0;0;0;0;0
5.4200480611568098;0.0083146961230254682;0;0;0;0;0
5.4282354449349919;0.007730104533627412;0;0;0;0;0
5.4364228287131748;0.0070710678118655499;0;0;0;0;0
5.4446102124913569;0.0063439328416365669;0;0;0;0;0
5.4527975962695399;0.0055557023301960563;0;0;0;0;0
5.4609849800477219;0.0047139673682600469;0;0;0;0;0
5.4691723638259049;0.0038268343236508764;0;0;0;0;0
5.4773597476040869;0.0029028467725447748;0;0;0;0;0
5.4855471313822699;0.0019509032201613361;0;0;0;0;0
5.493734515160452;0.00098017140329569909;0;0;0;0;0
5.5019218989386349;-9.8095540059105926e-18;0;0;0;0;0
5.510109282716817;-0.00098017140329557701;0;0;0;0;0
5.5182966664949999;-0.001950903220161216;0;0;0;0;0
5.526484050273182;-0.0029028467725445211;0;0;0;0;0
5.5346714340513641;-0.0038268343236507632;0;0;0;0;0
5.542858817829547;-0.0047139673682599385;0;0;0;0;0
5.5510462016077291;-0.0055557023301959539;0;0;0;0;0
5.5592335853859121;-0.0063439328416363613;0;0;0;0;0
5.5674209691640941;-0.0070710678118653626;0;0;0;0;0
5.5756083529422771;-0.0077301045336273348;0;0;0;0;0
5.5837957367204591;-0.0083146961230254005;0;0;0;0;0
5.5919831204986421;-0.0088192126434834869;0;0;0;0;0
5.6001705042768242;-0.0092387953251128023;0;0;0;0;0
5.6083578880550071;-0.0095694033573220684;0;0;0;0;0
5.6165452718331892;-0.009807852804032284;0;0;0;0;0
5.6247326556113721;-0.0099518472667219689;0;0;0;0;0
5.6329200393895542;-0.01;0;0;0;0;0
5.6411074231677372;-0.0099518472667219776;0;0;0;0;0
5.6492948069459192;-0.0098078528040323291;0;0;0;0;0
5.6574821907241022;-0.0095694033573220944;0;0;0;0;0
5.6656695745022843;-0.009238795325112889;0;0;0;0;0
5.6738569582804672;-0.0088192126434835962;0;0;0;0;0
5.6820443420586493;-0.0083146961230255272;0;0;0;0;0
5.6902317258368322;-0.0077301045336273903;0;0;0;0;0
5.6984191096150143;-0.0070710678118655257;0;0;0;0;0
5.7066064933931973;-0.0063439328416364307;0;0;0;0;0
5.7147938771713793;-0.0055557023301961465;0;0;0;0;0
5.7229812609495614;-0.0047139673682601423;0;0;0;0;0
5.7311686447277443;-0.0038268343236509757;0;0;0;0;0
5.7393560285059264;-0.0029028467725447414;0;0;0;0;0
5.7475434122841094;-0.0019509032201613025;0;0;0;0;0
5.7557307960622914;-0.00098017140329580621;0;0;0;0;0
5.7639181798404744;-9.799650315725178e-17;0;0;0;0;0
5.7721055636186565;0.00098017140329546967;0;0;0;0;0
5.7802929473968394;0.0019509032201612498;0;0;0;0;0
5.7884803311750215;0.0029028467725445545;0;0;0;0;0
5.7966677149532044;0.0038268343236507948;0;0;0;0;0
5.8048550987313865;0.004713967368259844;0;0;0;0;0
5.8130424825095695;0.0055557023301959834;0;0;0;0;0
5.8212298662877515;0.0063439328416363882;0;0;0;0;0
5.8294172500659345;0.0070710678118653869;0;0;0;0;0
5.8376046338441165;0.0077301045336272654;0;0;0;0;0
5.8457920176222995;0.0083146961230254196;0;0;0;0;0
5.8539794014004816;0.0088192126434835042;0;0;0;0;0
5.8621667851786645;0.0092387953251128682;0;0;0;0;0
5.8703541689568466;0.0095694033573220788;0;0;0;0;0
5.8785415527350295;0.0098078528040322892;0;0;0;0;0
5.8867289365132116;0.0099518472667219585;0;0;0;0;0
5.8949163202913946;0.01;0;0;0;0;0
5.9031037040695766;0.0099518472667219741;0;0;0;0;0
5.9112910878477587;0.0098078528040323222;0;0;0;0;0
5.9194784716259417;0.0095694033573221256;0;0;0;0;0
5.9276658554041237;0.0092387953251129307;0;0;0;0;0
5.9358532391823067;0.0088192126434835788;0;0;0;0;0
5.9440406229604887;0.0083146961230255098;0;0;0;0;0
5.9522280067386717;0.0077301045336274589;0;0;0;0;0
5.9604153905168538;0.0070710678118656011;0;0;0;0;0
5.9686027742950367;0.006343932841636514;0;0;0;0;0
5.9767901580732188;0.005555702330196117;0;0;0;0;0
5.9849775418514017;0.0047139673682599862;0;0;0;0;0
5.9931649256295838;0.0038268343236510754;0;0;0;0;0
6.0013523094077668;0.0029028467725447089;0;0;0;0;0
6.0095396931859488;0.0019509032201614083;0;0;0;0;0
6.0177270769641318;0.00098017140329563078;0;0;0;0;0
6.0259144607423138;6.3694013168394139e-17;0;0;0;0;0
6.0341018445204968;-0.00098017140329550393;0;0;0;0;0
6.0422892282986789;-0.001950903220161144;0;0;0;0;0
6.0504766120768618;-0.0029028467725445875;0;0;0;0;0
6.0586639958550439;-0.0038268343236508265;0;0;0;0;0
6.0668513796332268;-0.0047139673682598743;0;0;0;0;0
6.0750387634114089;-0.0055557023301958932;0;0;0;0;0
6.0832261471895919;-0.0063439328416364151;0;0;0;0;0
6.0914135309677739;-0.0070710678118654112;0;0;0;0;0
6.099600914745956;-0.007730104533627288;0;0;0;0;0
6.107788298524139;-0.0083146961230254387;0;0;0;0;0
6.115975682302321;-0.0088192126434834522;0;0;0;0;0
6.124163066080504;-0.0092387953251128283;0;0;0;0;0
6.132350449858686;-0.0095694033573220476;0;0;0;0;0
6.140537833636869;-0.0098078528040322962;0;0;0;0;0
6.1487252174150511;-0.009951847266721962;0;0;0;0;0
6.156912601193234;-0.01;0;0;0;0;0
6.1650999849714161;-0.0099518472667219846;0;0;0;0;0
6.173287368749599;-0.0098078528040323153;0;0;0;0;0
6.1814747525277811;-0.0095694033573221152;0;0;0;0;0
6.1896621363059641;-0.0092387953251129168;0;0;0;0;0
6.1978495200841461;-0.0088192126434836308;0;0;0;0;0
6.2060369038623291;-0.008314696123025489;0;0;0;0;0
6.2142242876405112;-0.0077301045336274363;0;0;0;0;0
6.2224116714186941;-0.0070710678118654771;0;0;0;0;0
6.2305990551968762;-0.0063439328416365973;0;0;0;0;0
6.2387864389750591;-0.0055557023301960893;0;0;0;0;0
6.2469738227532412;-0.0047139673682600816;0;0;0;0;0
6.2551612065314242;-0.0038268343236509124;0;0;0;0;0
6.2633485903096062;-0.002902846772544676;0;0;0;0;0
6.2715359740877892;-0.0019509032201613747;0;0;0;0;0
6.2797233578659712;-0.00098017140329573812;0;0;0;0;0
6.2879107416441542;-2.9391523179536474e-17;0;0;0;0;0
6.2960981254223363;0.00098017140329553797;0;0;0;0;0
6.3042855092005183;0.0019509032201611776;0;0;0;0;0
6.3124728929787013;0.0029028467725444838;0;0;0;0;0
6.3206602767568834;0.0038268343236507268;0;0;0;0;0
6.3288476605350663;0.0047139673682599047;0;0;0;0;0
6.3370350443132484;0.0055557023301959219;0;0;0;0;0
6.3452224280914313;0.006343932841636442;0;0;0;0;0
6.3534098118696134;0.0070710678118653348;0;0;0;0;0
6.3615971956477964;0.0077301045336273088;0;0;0;0;0
6.3697845794259784;0.008314696123025378;0;0;0;0;0
6.3779719632041614;0.0088192126434835354;0;0;0;0;0
6.3861593469823434;0.0092387953251128405;0;0;0;0;0
6.3943467307605264;0.009569403357322058;0;0;0;0;0
6.4025341145387085;0.0098078528040322754;0;0;0;0;0
6.4107214983168914;0.0099518472667219655;0;0;0;0;0
6.4189088820950735;0.01;0;0;0;0;0
6.4270962658732564;0.0099518472667219811;0;0;0;0;0
6.4352836496514385;0.0098078528040323361;0;0;0;0;0
6.4434710334296215;0.0095694033573221048;0;0;0;0;0
6.4516584172078035;0.0092387953251129046;0;0;0;0;0
6.4598458009859865;0.0088192126434835476;0;0;0;0;0
6.4680331847641686;0.0083146961230255497;0;0;0;0;0
6.4762205685423515;0.0077301045336274146;0;0;0;0;0
6.4844079523205336;0.0070710678118655534;0;0;0;0;0
6.4925953360987156;0.0063439328416365704;0;0;0;0;0
6.5007827198768986;0.0055557023301960606;0;0;0;0;0
6.5089701036550807;0.0047139673682600513;0;0;0;0;0
6.5171574874332636;0.0038268343236510121;0;0;0;0;0
6.5253448712114457;0.0029028467725447792;0;0;0;0;0
6.5335322549896286;0.0019509032201613411;0;0;0;0;0
6.5417196387678107;0.00098017140329570386;0;0;0;0;0
6.5499070225459937;1.3719758034269886e-16;0;0;0;0;0
6.5580944063241757;-0.00098017140329543086;0;0;0;0;0
6.5662817901023587;-0.0019509032201612112;0;0;0;0;0
6.5744691738805408;-0.0029028467725445168;0;0;0;0;0
6.5826565576587237;-0.0038268343236508903;0;0;0;0;0
6.5908439414369058;-0.0047139673682598093;0;0;0;0;0
6.5990313252150887;-0.0055557023301959505;0;0;0;0;0
6.6072187089932708;-0.0063439328416363587;0;0;0;0;0
6.6154060927714537;-0.0070710678118654606;0;0;0;0;0
6.6235934765496358;-0.0077301045336273314;0;0;0;0;0
6.6317808603278188;-0.0083146961230253971;0;0;0;0;0
6.6399682441060008;-0.0088192126434834851;0;0;0;0;0
6.6481556278841838;-0.0092387953251128543;0;0;0;0;0
6.6563430116623659;-0.0095694033573220667;0;0;0;0;0
6.6645303954405488;-0.0098078528040322823;0;0;0;0;0
6.6727177792187309;-0.0099518472667219533;0;0;0;0;0
6.6809051629969129;-0.01;0;0;0;0;0
6.6890925467750959;-0.0099518472667219776;0;0;0;0;0
6.697279930553278;-0.0098078528040323291;0;0;0;0;0
6.7054673143314609;-0.0095694033573220962;0;0;0;0;0
6.713654698109643;-0.0092387953251129463;0;0;0;0;0
6.7218420818878259;-0.0088192126434835979;0;0;0;0;0
6.730029465666008;-0.0083146961230255306;0;0;0;0;0
6.738216849444191;-0.0077301045336273938;0;0;0;0;0
6.746404233222373;-0.0070710678118655291;0;0;0;0;0
6.754591617000556;-0.0063439328416365435;0;0;0;0;0
6.7627790007787381;-0.0055557023301961508;0;0;0;0;0
6.770966384556921;-0.0047139673682600209;0;0;0;0;0
6.7791537683351031;-0.0038268343236509805;0;0;0;0;0
6.787341152113286;-0.0029028467725447466;0;0;0;0;0
6.7955285358914681;-0.0019509032201614469;0;0;0;0;0
6.8037159196696511;-0.00098017140329566981;0;0;0;0;0
6.8119033034478331;-1.0289509035384121e-16;0;0;0;0;0
6.8200906872260161;0.00098017140329560628;0;0;0;0;0
6.8282780710041981;0.0019509032201611054;0;0;0;0;0
6.8364654547823811;0.0029028467725445493;0;0;0;0;0
6.8446528385605632;0.0038268343236507901;0;0;0;0;0
6.8528402223387461;0.0047139673682599645;0;0;0;0;0
6.8610276061169282;0.0055557023301959782;0;0;0;0;0
6.8692149898951103;0.0063439328416363848;0;0;0;0;0
6.8774023736732932;0.0070710678118653834;0;0;0;0;0
6.8855897574514753;0.0077301045336272628;0;0;0;0;0
6.8937771412296582;0.0083146961230254161;0;0;0;0;0
6.9019645250078403;0.0088192126434835007;0;0;0;0;0
6.9101519087860233;0.0092387953251128127;0;0;0;0;0
6.9183392925642053;0.0095694033573220354;0;0;0;0;0
6.9265266763423883;0.0098078528040322892;0;0;0;0;0
6.9347140601205703;0.0099518472667219568;0;0;0;0;0
6.9429014438987533;0.01;0;0;0;0;0
6.9510888276769354;0.009951847266721988;0;0;0;0;0
6.9592762114551183;0.0098078528040323222;0;0;0;0;0
6.9674635952333004;0.0095694033573221274;0;0;0;0;0
6.9756509790114833;0.0092387953251128786;0;0;0;0;0
6.9838383627896654;0.0088192126434835823;0;0;0;0;0
6.9920257465678484;0.0083146961230255115;0;0;0;0;0
7.0002131303460304;0.0077301045336274615;0;0;0;0;0
7.0084005141242134;0.0070710678118655048;0;0;0;0;0
7.0165878979023955;0.0063439328416365175;0;0;0;0;0
7.0247752816805784;0.0055557023301961222;0;0;0;0;0
7.0329626654587605;0.0047139673682601163;0;0;0;0;0
7.0411500492369434;0.0038268343236509488;0;0;0;0;0
7.0493374330151255;0.0029028467725447137;0;0;0;0;0
7.0575248167933076;0.0019509032201614129;0;0;0;0;0
7.0657122005714905;0.00098017140329577693;0;0;0;0;0
7.0738995843496726;2.1070114751700357e-16;0;0;0;0;0
7.0820869681278555;-0.00098017140329549916;0;0;0;0;0
7.0902743519060376;-0.001950903220161139;0;0;0;0;0
7.0984617356842206;-0.0029028467725445823;0;0;0;0;0
7.1066491194624026;-0.0038268343236508217;0;0;0;0;0
7.1148365032405856;-0.00471396736825987;0;0;0;0;0
7.1230238870187677;-0.0055557023301958898;0;0;0;0;0
7.1312112707969506;-0.0063439328416364116;0;0;0;0;0
7.1393986545751327;-0.0070710678118654086;0;0;0;0;0
7.1475860383533156;-0.0077301045336272845;0;0;0;0;0
7.1557734221314977;-0.0083146961230253554;0;0;0;0;0
7.1639608059096807;-0.0088192126434835181;0;0;0;0;0
7.1721481896878627;-0.0092387953251128266;0;0;0;0;0
7.1803355734660457;-0.0095694033573220875;0;0;0;0;0
7.1885229572442277;-0.0098078528040322684;0;0;0;0;0
7.1967103410224107;-0.0099518472667219603;0;0;0;0;0
7.2048977248005928;-0.01;0;0;0;0;0
7.2130851085787757;-0.0099518472667219707;0;0;0;0;0
7.2212724923569578;-0.0098078528040323153;0;0;0;0;0
7.2294598761351407;-0.009569403357322117;0;0;0;0;0
7.2376472599133228;-0.0092387953251129203;0;0;0;0;0
7.2458346436915049;-0.0088192126434836326;0;0;0;0;0
7.2540220274696878;-0.0083146961230254925;0;0;0;0;0
7.2622094112478699;-0.0077301045336274398;0;0;0;0;0
7.2703967950260528;-0.0070710678118655812;0;0;0;0;0
7.2785841788042349;-0.0063439328416366007;0;0;0;0;0
7.2867715625824179;-0.0055557023301960927;0;0;0;0;0
7.2949589463605999;-0.004713967368260086;0;0;0;0;0
7.3031463301387829;-0.0038268343236510485;0;0;0;0;0
7.311333713916965;-0.0029028467725448169;0;0;0;0;0
7.3195210976951479;-0.0019509032201613793;0;0;0;0;0
7.32770848147333;-0.00098017140329574289;0;0;0;0;0
7.3358958652515129;-3.4290110376125888e-17;0;0;0;0;0
7.344083249029695;0.0009801714032955332;0;0;0;0;0
7.352270632807878;0.0019509032201611729;0;0;0;0;0
7.36045801658606;0.0029028467725444791;0;0;0;0;0
7.368645400364243;0.0038268343236508534;0;0;0;0;0
7.376832784142425;0.0047139673682599003;0;0;0;0;0
7.385020167920608;0.0055557023301959175;0;0;0;0;0
7.3932075516987901;0.0063439328416363284;0;0;0;0;0
7.401394935476973;0.0070710678118654328;0;0;0;0;0
7.4095823192551551;0.0077301045336273053;0;0;0;0;0
7.417769703033338;0.0083146961230254543;0;0;0;0;0
7.4259570868115201;0.008819212643483466;0;0;0;0;0
7.4341444705897022;0.009238795325112785;0;0;0;0;0
7.4423318543678851;0.0095694033573220563;0;0;0;0;0
7.4505192381460672;0.0098078528040322754;0;0;0;0;0
7.4587066219242502;0.0099518472667219637;0;0;0;0;0
7.4668940057024322;0.01;0;0;0;0;0
7.4750813894806152;0.0099518472667219811;0;0;0;0;0
7.4832687732587972;0.0098078528040323361;0;0;0;0;0
7.4914561570369802;0.0095694033573221066;0;0;0;0;0
7.4996435408151623;0.0092387953251129064;0;0;0;0;0
7.5078309245933452;0.008819212643483617;0;0;0;0;0
7.5160183083715273;0.0083146961230255532;0;0;0;0;0
7.5242056921497102;0.0077301045336274181;0;0;0;0;0
7.5323930759278923;0.0070710678118655569;0;0;0;0;0
7.5405804597060753;0.0063439328416365738;0;0;0;0;0
7.5487678434842573;0.0055557023301961829;0;0;0;0;0
7.5569552272624403;0.0047139673682600556;0;0;0;0;0
7.5651426110406224;0.0038268343236510169;0;0;0;0;0
7.5733299948188053;0.0029028467725446478;0;0;0;0;0
7.5815173785969874;0.0019509032201613459;0;0;0;0;0
7.5897047623751703;0.00098017140329570884;0;0;0;0;0
7.5978921461533524;1.4209616753928826e-16;0;0;0;0;0
7.6060795299315354;-0.00098017140329556725;0;0;0;0;0
7.6142669137097174;-0.0019509032201612065;0;0;0;0;0
7.6224542974878995;-0.0029028467725445125;0;0;0;0;0
7.6306416812660824;-0.0038268343236507541;0;0;0;0;0
7.6388290650442645;-0.0047139673682598049;0;0;0;0;0
7.6470164488224475;-0.0055557023301959461;0;0;0;0;0
7.6552038326006295;-0.0063439328416363544;0;0;0;0;0
7.6633912163788125;-0.0070710678118653556;0;0;0;0;0
7.6715786001569946;-0.0077301045336272377;0;0;0;0;0
7.6797659839351775;-0.0083146961230253953;0;0;0;0;0
7.6879533677133596;-0.0088192126434834834;0;0;0;0;0
7.6961407514915425;-0.0092387953251128526;0;0;0;0;0
7.7043281352697246;-0.0095694033573220667;0;0;0;0;0
7.7125155190479076;-0.0098078528040322806;0;0;0;0;0
7.7207029028260896;-0.0099518472667219533;0;0;0;0;0
7.7288902866042726;-0.01;0;0;0;0;0
7.7370776703824546;-0.0099518472667219776;0;0;0;0;0
7.7452650541606376;-0.0098078528040323309;0;0;0;0;0
7.7534524379388197;-0.0095694033573221378;0;0;0;0;0
7.7616398217170026;-0.0092387953251128925;0;0;0;0;0
7.7698272054951847;-0.0088192126434836014;0;0;0;0;0
7.7780145892733676;-0.0083146961230255341;0;0;0;0;0
7.7862019730515497;-0.0077301045336274866;0;0;0;0;0
7.7943893568297327;-0.0070710678118655326;0;0;0;0;0
7.8025767406079147;-0.006343932841636547;0;0;0;0;0
7.8107641243860977;-0.0055557023301960363;0;0;0;0;0
7.8189515081642798;-0.0047139673682600252;0;0;0;0;0
7.8271388919424618;-0.0038268343236511162;0;0;0;0;0
7.8353262757206448;-0.002902846772544751;0;0;0;0;0
7.8435136594988268;-0.0019509032201614515;0;0;0;0;0
7.8517010432770098;-0.00098017140329567458;0;0;0;0;0
7.8598884270551919;-1.0779367755043061e-16;0;0;0;0;0
7.8680758108333748;0.00098017140329546013;0;0;0;0;0
7.8762631946115569;0.0019509032201611006;0;0;0;0;0
7.8844505783897398;0.002902846772544545;0;0;0;0;0
7.8926379621679219;0.0038268343236507857;0;0;0;0;0
7.9008253459461049;0.0047139673682598353;0;0;0;0;0
7.9090127297242869;0.0055557023301958568;0;0;0;0;0
7.9172001135024699;0.0063439328416363804;0;0;0;0;0
7.9253874972806519;0.0070710678118653808;0;0;0;0;0
7.9335748810588349;0.0077301045336273504;0;0;0;0;0
7.941762264837017;0.0083146961230254144;0;0;0;0;0
7.9499496486151999;0.008819212643483499;0;0;0;0;0
7.958137032393382;0.009238795325112811;0;0;0;0;0
7.9663244161715649;0.0095694033573220771;0;0;0;0;0
7.974511799949747;0.0098078528040322875;0;0;0;0;0
7.98269918372793;0.0099518472667219568;0;0;0;0;0
7.990886567506112;0.01;0;0;0;0;0
7.999073951284295;0.0099518472667219759;0;0;0;0;0
8.0072613350624771;0.0098078528040323239;0;0;0;0;0
8.0154487188406591;0.0095694033573221291;0;0;0;0;0
8.0236361026188412;0.0092387953251129359;0;0;0;0;0
8.031823486397025;0.008819212643483584;0;0;0;0;0
8.0400108701752071;0.0083146961230255133;0;0;0;0;0
8.0481982539533892;0.0077301045336274641;0;0;0;0;0
8.0563856377315712;0.0070710678118656089;0;0;0;0;0
8.0645730215097551;0.0063439328416365218;0;0;0;0;0
8.0727604052879371;0.0055557023301961266;0;0;0;0;0
8.0809477890661192;0.0047139673682601206;0;0;0;0;0
8.0891351728443013;0.0038268343236510845;0;0;0;0;0
8.0973225566224851;0.0029028467725447185;0;0;0;0;0
8.1055099404006672;0.0019509032201614179;0;0;0;0;0
8.1136973241788493;0.00098017140329578192;0;0;0;0;0
8.1218847079570313;2.1559973471359302e-16;0;0;0;0;0
8.1300720917352152;-0.00098017140329563555;0;0;0;0;0
8.1382594755133972;-0.0019509032201611343;0;0;0;0;0
8.1464468592915793;-0.0029028467725444418;0;0;0;0;0
8.1546342430697614;-0.0038268343236506864;0;0;0;0;0
8.1628216268479452;-0.0047139673682599905;0;0;0;0;0
8.1710090106261273;-0.0055557023301960034;0;0;0;0;0
8.1791963944043093;-0.0063439328416364073;0;0;0;0;0
8.1873837781824914;-0.0070710678118653036;0;0;0;0;0
8.1955711619606735;-0.0077301045336271917;0;0;0;0;0
8.2037585457388573;-0.0083146961230254317;0;0;0;0;0
8.2119459295170394;-0.0088192126434835146;0;0;0;0;0
8.2201333132952215;-0.0092387953251128248;0;0;0;0;0
8.2283206970734035;-0.0095694033573220025;0;0;0;0;0
8.2365080808515874;-0.0098078528040322945;0;0;0;0;0
8.2446954646297694;-0.0099518472667219603;0;0;0;0;0
8.2528828484079515;-0.01;0;0;0;0;0
8.2610702321861336;-0.0099518472667219846;0;0;0;0;0
8.2692576159643174;-0.009807852804032317;0;0;0;0;0
8.2774449997424995;-0.0095694033573221187;0;0;0;0;0
8.2856323835206815;-0.009238795325112922;0;0;0;0;0
8.2938197672988636;-0.0088192126434836343;0;0;0;0;0
8.3020071510770475;-0.0083146961230254942;0;0;0;0;0
8.3101945348552295;-0.0077301045336274432;0;0;0;0;0
8.3183819186334116;-0.0070710678118655846;0;0;0;0;0
8.3265693024115937;-0.0063439328416366051;0;0;0;0;0
8.3347566861897775;-0.0055557023301960971;0;0;0;0;0
8.3429440699679596;-0.0047139673682600903;0;0;0;0;0
8.3511314537461416;-0.0038268343236510529;0;0;0;0;0
8.3593188375243237;-0.0029028467725448217;0;0;0;0;0
8.3675062213025075;-0.0019509032201612448;0;0;0;0;0
8.3756936050806896;-0.00098017140329574766;0;0;0;0;0
8.3838809888588717;-1.8129724472473535e-16;0;0;0;0;0
8.3920683726370537;0.00098017140329538684;0;0;0;0;0
8.4002557564152358;0.0019509032201610287;0;0;0;0;0
8.4084431401934197;0.0029028467725446105;0;0;0;0;0
8.4166305239716017;0.0038268343236508491;0;0;0;0;0
8.4248179077497838;0.0047139673682597702;0;0;0;0;0
8.4330052915279659;0.0055557023301957952;0;0;0;0;0
8.4411926753061497;0.0063439328416364342;0;0;0;0;0
8.4493800590843318;0.0070710678118654285;0;0;0;0;0
8.4575674428625138;0.0077301045336273036;0;0;0;0;0
8.4657548266406959;0.008314696123025293;0;0;0;0;0
8.4739422104188797;0.008819212643483532;0;0;0;0;0
8.4821295941970618;0.009238795325112837;0;0;0;0;0
8.4903169779752439;0.0095694033573220545;0;0;0;0;0
8.4985043617534259;0.0098078528040322754;0;0;0;0;0
8.5066917455316098;0.0099518472667219637;0;0;0;0;0
8.5148791293097918;0.01;0;0;0;0;0
8.5230665130879739;0.0099518472667219811;0;0;0;0;0
8.531253896866156;0.0098078528040323378;0;0;0;0;0
8.5394412806443398;0.0095694033573221083;0;0;0;0;0
8.5476286644225219;0.0092387953251129081;0;0;0;0;0
8.555816048200704;0.0088192126434836187;0;0;0;0;0
8.564003431978886;0.0083146961230255549;0;0;0;0;0
8.5721908157570699;0.0077301045336274216;0;0;0;0;0
8.5803781995352519;0.0070710678118655603;0;0;0;0;0
8.588565583313434;0.0063439328416365782;0;0;0;0;0
8.5967529670916161;0.0055557023301961873;0;0;0;0;0
8.6049403508697981;0.0047139673682601848;0;0;0;0;0
8.613127734647982;0.0038268343236510212;0;0;0;0;0
8.621315118426164;0.0029028467725447887;0;0;0;0;0
8.6295025022043461;0.0019509032201614899;0;0;0;0;0
8.6376898859825282;0.000980171403295855;0;0;0;0;0
8.645877269760712;4.8862075838576457e-18;0;0;0;0;0
8.6540646535388941;-0.00098017140329556248;0;0;0;0;0
8.6622520373170762;-0.001950903220161062;0;0;0;0;0
8.6704394210952582;-0.0029028467725443715;0;0;0;0;0
8.6786268048734421;-0.0038268343236508807;0;0;0;0;0
8.6868141886516241;-0.0047139673682599264;0;0;0;0;0
8.6950015724298062;-0.0055557023301959418;0;0;0;0;0
8.7031889562079883;-0.0063439328416363509;0;0;0;0;0
8.7113763399861721;-0.0070710678118654528;0;0;0;0;0
8.7195637237643542;-0.0077301045336273244;0;0;0;0;0
8.7277511075425362;-0.0083146961230253918;0;0;0;0;0
8.7359384913207183;-0.0088192126434834799;0;0;0;0;0
8.7441258750989022;-0.0092387953251128509;0;0;0;0;0
8.7523132588770842;-0.0095694033573220632;0;0;0;0;0
8.7605006426552663;-0.0098078528040322806;0;0;0;0;0
8.7686880264334484;-0.0099518472667219533;0;0;0;0;0
8.7768754102116304;-0.01;0;0;0;0;0
8.7850627939898143;-0.0099518472667219776;0;0;0;0;0
8.7932501777679963;-0.0098078528040323309;0;0;0;0;0
8.8014375615461784;-0.0095694033573221395;0;0;0;0;0
8.8096249453243605;-0.0092387953251129497;0;0;0;0;0
8.8178123291025443;-0.0088192126434836031;0;0;0;0;0
8.8259997128807264;-0.0083146961230255358;0;0;0;0;0
8.8341870966589084;-0.0077301045336274901;0;0;0;0;0
8.8423744804370905;-0.0070710678118656367;0;0;0;0;0
8.8505618642152744;-0.0063439328416365513;0;0;0;0;0
8.8587492479934564;-0.0055557023301961586;0;0;0;0;0
8.8669366317716385;-0.0047139673682601553;0;0;0;0;0
8.8751240155498206;-0.0038268343236511205;0;0;0;0;0
8.8833113993280044;-0.00290284677254462;0;0;0;0;0
8.8914987831061865;-0.0019509032201613168;0;0;0;0;0
8.8996861668843685;-0.00098017140329582095;0;0;0;0;0
8.9078735506625506;-2.5480081189904006e-16;0;0;0;0;0
8.9160609344407344;0.00098017140329559652;0;0;0;0;0
8.9242483182189165;0.0019509032201612353;0;0;0;0;0
8.9324357019970986;0.0029028467725445402;0;0;0;0;0
8.9406230857752806;0.0038268343236507814;0;0;0;0;0
8.9488104695534645;0.0047139673682599567;0;0;0;0;0
8.9569978533316466;0.0055557023301959704;0;0;0;0;0
8.9651852371098286;0.006343932841636377;0;0;0;0;0
8.9733726208880107;0.0070710678118653773;0;0;0;0;0
8.9815600046661928;0.0077301045336272568;0;0;0;0;0
8.9897473884443766;0.0083146961230254109;0;0;0;0;0
8.9979347722225587;0.0088192126434834955;0;0;0;0;0
9.0061221560007407;0.0092387953251128092;0;0;0;0;0
9.0143095397789228;0.0095694033573220337;0;0;0;0;0
9.0224969235571066;0.0098078528040322875;0;0;0;0;0
9.0306843073352887;0.0099518472667219568;0;0;0;0;0
9.0388716911134708;0.01;0;0;0;0;0
9.0470590748916528;0.0099518472667219898;0;0;0;0;0
9.0552464586698367;0.0098078528040323239;0;0;0;0;0
9.0634338424480188;0.0095694033573221291;0;0;0;0;0
9.0716212262262008;0.0092387953251129359;0;0;0;0;0
9.0798086100043829;0.0088192126434836534;0;0;0;0;0
9.0879959937825667;0.0083146961230255167;0;0;0;0;0
9.0961833775607488;0.0077301045336274675;0;0;0;0;0
9.1043707613389309;0.0070710678118656124;0;0;0;0;0
9.1125581451171129;0.0063439328416366346;0;0;0;0;0
9.1207455288952968;0.0055557023301960121;0;0;0;0;0
9.1289329126734788;0.0047139673682599992;0;0;0;0;0
9.1371202964516609;0.0038268343236510889;0;0;0;0;0
9.145307680229843;0.0029028467725448594;0;0;0;0;0
9.153495064008025;0.0019509032201615621;0;0;0;0;0
9.1616824477862089;0.00098017140329564531;0;0;0;0;0
9.1698698315643909;7.838977475816237e-17;0;0;0;0;0
9.178057215342573;-0.0009801714032954894;0;0;0;0;0
9.1862445991207551;-0.0019509032201609903;0;0;0;0;0
9.1944319828989389;-0.0029028467725445727;0;0;0;0;0
9.202619366677121;-0.0038268343236508131;0;0;0;0;0
9.2108067504553031;-0.0047139673682598613;0;0;0;0;0
9.2189941342334851;-0.0055557023301958811;0;0;0;0;0
9.227181518011669;-0.0063439328416364038;0;0;0;0;0
9.235368901789851;-0.0070710678118654008;0;0;0;0;0
9.2435562855680331;-0.0077301045336272776;0;0;0;0;0
9.2517436693462152;-0.0083146961230253502;0;0;0;0;0
9.259931053124399;-0.0088192126434835129;0;0;0;0;0
9.2681184369025811;-0.0092387953251128214;0;0;0;0;0
9.2763058206807631;-0.0095694033573220424;0;0;0;0;0
9.2844932044589452;-0.0098078528040322667;0;0;0;0;0
9.2926805882371291;-0.0099518472667219603;0;0;0;0;0
9.3008679720153111;-0.01;0;0;0;0;0
9.3090553557934932;-0.0099518472667219863;0;0;0;0;0
9.3172427395716753;-0.0098078528040323448;0;0;0;0;0
9.3254301233498591;-0.0095694033573221187;0;0;0;0;0
9.3336175071280412;-0.0092387953251129237;0;0;0;0;0
9.3418048909062232;-0.0088192126434836378;0;0;0;0;0
9.3499922746844053;-0.0083146961230255775;0;0;0;0;0
9.3581796584625874;-0.0077301045336275369;0;0;0;0;0
9.3663670422407712;-0.0070710678118654866;0;0;0;0;0
9.3745544260189533;-0.0063439328416366085;0;0;0;0;0
9.3827418097971353;-0.0055557023301962194;0;0;0;0;0
9.3909291935753174;-0.0047139673682602204;0;0;0;0;0
9.3991165773535013;-0.0038268343236509262;0;0;0;0;0
9.4073039611316833;-0.0029028467725446898;0;0;0;0;0
9.4154913449098654;-0.001950903220161389;0;0;0;0;0
9.4236787286880475;-0.00098017140329589403;0;0;0;0;0
9.4318661124662313;-4.4087284769304716e-17;0;0;0;0;0
9.4400534962444134;0.00098017140329552345;0;0;0;0;0
9.4482408800225954;0.0019509032201611631;0;0;0;0;0
9.4564282638007775;0.0029028467725444695;0;0;0;0;0
9.4646156475789613;0.0038268343236508447;0;0;0;0;0
9.4728030313571434;0.0047139673682598917;0;0;0;0;0
9.4809904151353255;0.0055557023301959097;0;0;0;0;0
9.4891777989135075;0.0063439328416363206;0;0;0;0;0
9.4973651826916914;0.007071067811865425;0;0;0;0;0
9.5055525664698735;0.0077301045336273001;0;0;0;0;0
9.5137399502480555;0.008314696123025371;0;0;0;0;0
9.5219273340262376;0.0088192126434834626;0;0;0;0;0
9.5301147178044197;0.0092387953251127815;0;0;0;0;0
9.5383021015826035;0.0095694033573220528;0;0;0;0;0
9.5464894853607856;0.0098078528040322736;0;0;0;0;0
9.5546768691389676;0.0099518472667219499;0;0;0;0;0
9.5628642529171497;0.01;0;0;0;0;0
9.5710516366953335;0.0099518472667219828;0;0;0;0;0
9.5792390204735156;0.0098078528040323396;0;0;0;0;0
9.5874264042516977;0.0095694033573221499;0;0;0;0;0
9.5956137880298797;0.0092387953251129654;0;0;0;0;0
9.6038011718080636;0.0088192126434835545;0;0;0;0;0
9.6119885555862457;0.0083146961230255584;0;0;0;0;0
9.6201759393644277;0.0077301045336275144;0;0;0;0;0
9.6283633231426098;0.0070710678118656644;0;0;0;0;0
9.6365507069207936;0.0063439328416364715;0;0;0;0;0
9.6447380906989757;0.0055557023301960728;0;0;0;0;0
9.6529254744771578;0.0047139673682600643;0;0;0;0;0
9.6611128582553398;0.003826834323651157;0;0;0;0;0
9.6693002420335237;0.0029028467725446573;0;0;0;0;0
9.6774876258117057;0.0019509032201613554;0;0;0;0;0
