#Time;LinearAccX;LinearAccY;LinearAccZ;AngularAccX;AngularAccY;AngularAccZ
0;0;0;0;0;0;0
0.0073725741585375674;0.00098017140329560606;0;0;0;0;0
0.014745148317075135;0.0019509032201612826;0;0;0;0;0
0.022117722475612701;0.0029028467725446235;0;0;0;0;0
0.02949029663415027;0.0038268343236508981;0;0;0;0;0
0.036862870792687838;0.0047139673682599767;0;0;0;0;0
0.044235444951225403;0.0055557023301960216;0;0;0;0;0
0.051608019109762975;0.0063439328416364559;0;0;0;0;0
0.058980593268300539;0.0070710678118654745;0;0;0;0;0
0.066353167426838111;0.0077301045336273704;0;0;0;0;0
0.073725741585375676;0.0083146961230254526;0;0;0;0;0
0.081098315743913241;0.0088192126434835511;0;0;0;0;0
0.088470889902450806;0.0092387953251128682;0;0;0;0;0
0.09584346406098837;0.0095694033573220892;0;0;0;0;0
0.10321603821952595;0.0098078528040323049;0;0;0;0;0
0.11058861237806351;0.0099518472667219689;0;0;0;0;0
0.11796118653660108;0.01;0;0;0;0;0
0.12533376069513866;0.0099518472667219689;0;0;0;0;0
0.13270633485367622;0.0098078528040323049;0;0;0;0;0
0.14007890901221379;0.0095694033573220892;0;0;0;0;0
0.14745148317075135;0.0092387953251128682;0;0;0;0;0
0.15482405732928892;0.0088192126434835511;0;0;0;0;0
0.16219663148782648;0.0083146961230254508;0;0;0;0;0
0.16956920564636405;0.0077301045336273713;0;0;0;0;0
0.17694177980490161;0.0070710678118654762;0;0;0;0;0
0.18431435396343918;0.006343932841636455;0;0;0;0;0
0.19168692812197674;0.0055557023301960251;0;0;0;0;0
0.19905950228051433;0.0047139673682599741;0;0;0;0;0
0.2064320764390519;0.0038268343236508946;0;0;0;0;0
0.21380465059758946;0.0029028467725446239;0;0;0;0;0
0.22117722475612703;0.0019509032201612817;0;0;0;0;0
0.22854979891466459;0.00098017140329560389;0;0;0;0;0
0.23592237307320216;1.2246467991473532e-18;0;0;0;0;0
0.24329494723173972;-0.00098017140329560585;0;0;0;0;0
0.25066752139027731;-0.001950903220161288;0;0;0;0;0
0.25804009554881485;-0.0029028467725446213;0;0;0;0;0
0.26541266970735244;-0.0038268343236509007;0;0;0;0;0
0.27278524386588998;-0.0047139673682599767;0;0;0;0;0
0.28015781802442757;-0.0055557023301960233;0;0;0;0;0
0.28753039218296511;-0.0063439328416364524;0;0;0;0;0
0.2949029663415027;-0.0070710678118654771;0;0;0;0;0
0.30227554050004024;-0.0077301045336273669;0;0;0;0;0
0.30964811465857783;-0.0083146961230254526;0;0;0;0;0
0.31702068881711543;-0.0088192126434835528;0;0;0;0;0
0.32439326297565296;-0.0092387953251128682;0;0;0;0;0
0.33176583713419056;-0.0095694033573220892;0;0;0;0;0
0.33913841129272809;-0.0098078528040323031;0;0;0;0;0
0.34651098545126569;-0.0099518472667219689;0;0;0;0;0
0.35388355960980322;-0.01;0;0;0;0;0
0.36125613376834081;-0.0099518472667219689;0;0;0;0;0
0.36862870792687835;-0.0098078528040323049;0;0;0;0;0
0.37600128208541594;-0.0095694033573220875;0;0;0;0;0
0.38337385624395348;-0.00923879532511287;0;0;0;0;0
0.39074643040249107;-0.0088192126434835511;0;0;0;0;0
0.39811900456102867;-0.0083146961230254508;0;0;0;0;0
0.4054915787195662;-0.0077301045336273687;0;0;0;0;0
0.4128641528781038;-0.0070710678118654701;0;0;0;0;0
0.42023672703664133;-0.0063439328416364524;0;0;0;0;0
0.42760930119517893;-0.0055557023301960216;0;0;0;0;0
0.43498187535371646;-0.0047139673682599793;0;0;0;0;0
0.44235444951225406;-0.0038268343236508959;0;0;0;0;0
0.44972702367079159;-0.0029028467725446252;0;0;0;0;0
0.45709959782932919;-0.0019509032201612787;0;0;0;0;0
0.46447217198786672;-0.00098017140329560498;0;0;0;0;0
0.47184474614640431;-2.4492935982947064e-18;0;0;0;0;0
0.47921732030494191;0.0009801714032956091;0;0;0;0;0
0.48658989446347944;0.0019509032201612826;0;0;0;0;0
0.49396246862201704;0.0029028467725446291;0;0;0;0;0
0.50133504278055463;0.003826834323650908;0;0;0;0;0
0.50870761693909217;0.0047139673682599836;0;0;0;0;0
0.5160801910976297;0.0055557023301960181;0;0;0;0;0
0.52345276525616724;0.0063439328416364481;0;0;0;0;0
0.53082533941470489;0.0070710678118654788;0;0;0;0;0
0.53819791357324243;0.0077301045336273713;0;0;0;0;0
0.54557048773177996;0.0083146961230254526;0;0;0;0;0
0.55294306189031761;0.0088192126434835528;0;0;0;0;0
0.56031563604885515;0.0092387953251128682;0;0;0;0;0
0.56768821020739269;0.0095694033573220892;0;0;0;0;0
0.57506078436593022;0.0098078528040323031;0;0;0;0;0
0.58243335852446787;0.0099518472667219689;0;0;0;0;0
0.58980593268300541;0.01;0;0;0;0;0
0.59717850684154294;0.0099518472667219689;0;0;0;0;0
0.60455108100008048;0.0098078528040323066;0;0;0;0;0
0.61192365515861813;0.0095694033573220875;0;0;0;0;0
0.61929622931715567;0.0092387953251128682;0;0;0;0;0
0.6266688034756932;0.0088192126434835511;0;0;0;0;0
0.63404137763423085;0.0083146961230254456;0;0;0;0;0
0.64141395179276839;0.0077301045336273643;0;0;0;0;0
0.64878652595130593;0.007071067811865471;0;0;0;0;0
0.65615910010984346;0.0063439328416364541;0;0;0;0;0
0.66353167426838111;0.0055557023301960233;0;0;0;0;0
0.67090424842691865;0.0047139673682599801;0;0;0;0;0
0.67827682258545618;0.003826834323650905;0;0;0;0;0
0.68564939674399372;0.0029028467725446343;0;0;0;0;0
0.69302197090253137;0.0019509032201612798;0;0;0;0;0
0.70039454506106891;0.00098017140329560628;0;0;0;0;0
0.70776711921960644;3.6739403974420592e-18;0;0;0;0;0
0.71513969337814409;-0.00098017140329561669;0;0;0;0;0
0.72251226753668163;-0.0019509032201612899;0;0;0;0;0
0.72988484169521917;-0.0029028467725446278;0;0;0;0;0
0.7372574158537567;-0.0038268343236508985;0;0;0;0;0
0.74462999001229435;-0.0047139673682599897;0;0;0;0;0
0.75200256417083189;-0.005555702330196032;0;0;0;0;0
0.75937513832936943;-0.0063439328416364472;0;0;0;0;0
0.76674771248790696;-0.0070710678118654658;0;0;0;0;0
0.77412028664644461;-0.0077301045336273713;0;0;0;0;0
0.78149286080498215;-0.0083146961230254508;0;0;0;0;0
0.78886543496351968;-0.0088192126434835493;0;0;0;0;0
0.79623800912205733;-0.0092387953251128717;0;0;0;0;0
0.80361058328059487;-0.0095694033573220909;0;0;0;0;0
0.81098315743913241;-0.0098078528040323049;0;0;0;0;0
0.81835573159766994;-0.0099518472667219689;0;0;0;0;0
0.82572830575620759;-0.01;0;0;0;0;0
0.83310087991474513;-0.0099518472667219689;0;0;0;0;0
0.84047345407328267;-0.0098078528040323031;0;0;0;0;0
0.8478460282318202;-0.0095694033573220875;0;0;0;0;0
0.85521860239035785;-0.0092387953251128682;0;0;0;0;0
0.86259117654889539;-0.0088192126434835511;0;0;0;0;0
0.86996375070743293;-0.008314696123025456;0;0;0;0;0
0.87733632486597057;-0.0077301045336273643;0;0;0;0;0
0.88470889902450811;-0.0070710678118654727;0;0;0;0;0
0.89208147318304565;-0.0063439328416364541;0;0;0;0;0
0.89945404734158318;-0.0055557023301960242;0;0;0;0;0
0.90682662150012083;-0.0047139673682599663;0;0;0;0;0
0.91419919565865837;-0.0038268343236508903;0;0;0;0;0
0.92157176981719591;-0.0029028467725446187;0;0;0;0;0
0.92894434397573344;-0.0019509032201612808;0;0;0;0;0
0.93631691813427109;-0.00098017140329560758;0;0;0;0;0
0.94368949229280863;-4.8985871965894128e-18;0;0;0;0;0
0.95106206645134617;0.00098017140329559782;0;0;0;0;0
0.95843464060988381;0.0019509032201612886;0;0;0;0;0
0.96580721476842135;0.0029028467725446261;0;0;0;0;0
0.97317978892695889;0.0038268343236508972;0;0;0;0;0
0.98055236308549643;0.0047139673682599732;0;0;0;0;0
0.98792493724403407;0.0055557023301960311;0;0;0;0;0
0.99529751140257161;0.0063439328416364602;0;0;0;0;0
1.0026700855611093;0.0070710678118654901;0;0;0;0;0
1.0100426597196468;0.0077301045336273808;0;0;0;0;0
1.0174152338781843;0.0083146961230254595;0;0;0;0;0
1.0247878080367219;0.0088192126434835476;0;0;0;0;0
1.0321603821952594;0.0092387953251128647;0;0;0;0;0
1.0395329563537969;0.0095694033573220857;0;0;0;0;0
1.0469055305123345;0.0098078528040323014;0;0;0;0;0
1.0542781046708722;0.0099518472667219707;0;0;0;0;0
1.0616506788294098;0.01;0;0;0;0;0
1.0690232529879473;0.0099518472667219689;0;0;0;0;0
1.0763958271464849;0.0098078528040323031;0;0;0;0;0
1.0837684013050224;0.0095694033573220892;0;0;0;0;0
1.0911409754635599;0.0092387953251128682;0;0;0;0;0
1.0985135496220975;0.0088192126434835528;0;0;0;0;0
1.1058861237806352;0.0083146961230254474;0;0;0;0;0
1.1132586979391728;0.007730104533627366;0;0;0;0;0
1.1206312720977103;0.0070710678118654736;0;0;0;0;0
1.1280038462562478;0.006343932841636455;0;0;0;0;0
1.1353764204147854;0.0055557023301960251;0;0;0;0;0
1.1427489945733229;0.0047139673682599827;0;0;0;0;0
1.1501215687318604;0.0038268343236509072;0;0;0;0;0
1.157494142890398;0.0029028467725446365;0;0;0;0;0
1.1648667170489357;0.0019509032201612648;0;0;0;0;0
1.1722392912074733;0.0009801714032955911;0;0;0;0;0
1.1796118653660108;-1.164033439826574e-17;0;0;0;0;0
1.1869844395245484;-0.0009801714032956143;0;0;0;0;0
1.1943570136830859;-0.0019509032201612876;0;0;0;0;0
1.2017295878416234;-0.0029028467725446083;0;0;0;0;0
1.209102162000161;-0.0038268343236508794;0;0;0;0;0
1.2164747361586987;-0.0047139673682599879;0;0;0;0;0
1.2238473103172363;-0.0055557023301960294;0;0;0;0;0
1.2312198844757738;-0.0063439328416364594;0;0;0;0;0
1.2385924586343113;-0.0070710678118654771;0;0;0;0;0
1.2459650327928489;-0.0077301045336273687;0;0;0;0;0
1.2533376069513864;-0.0083146961230254508;0;0;0;0;0
1.2607101811099239;-0.0088192126434835476;0;0;0;0;0
1.2680827552684617;-0.0092387953251128769;0;0;0;0;0
1.2754553294269992;-0.0095694033573220944;0;0;0;0;0
1.2828279035855368;-0.0098078528040323083;0;0;0;0;0
1.2902004777440743;-0.0099518472667219707;0;0;0;0;0
1.2975730519026119;-0.01;0;0;0;0;0
1.3049456260611494;-0.0099518472667219689;0;0;0;0;0
1.3123182002196869;-0.0098078528040323031;0;0;0;0;0
1.3196907743782245;-0.0095694033573220892;0;0;0;0;0
1.3270633485367622;-0.0092387953251128682;0;0;0;0;0
1.3344359226952998;-0.0088192126434835528;0;0;0;0;0
1.3418084968538373;-0.0083146961230254578;0;0;0;0;0
1.3491810710123748;-0.0077301045336273782;0;0;0;0;0
1.3565536451709124;-0.0070710678118654866;0;0;0;0;0
1.3639262193294499;-0.0063439328416364706;0;0;0;0;0
1.3712987934879874;-0.0055557023301960407;0;0;0;0;0
1.3786713676465252;-0.004713967368259968;0;0;0;0;0
1.3860439418050627;-0.0038268343236508924;0;0;0;0;0
1.3934165159636003;-0.0029028467725446213;0;0;0;0;0
1.4007890901221378;-0.0019509032201612834;0;0;0;0;0
1.4081616642806754;-0.00098017140329560997;0;0;0;0;0
1.4155342384392129;-7.3478807948841184e-18;0;0;0;0;0
1.4229068125977504;0.00098017140329559544;0;0;0;0;0
1.4302793867562882;0.0019509032201613036;0;0;0;0;0
1.4376519609148257;0.0029028467725446413;0;0;0;0;0
1.4450245350733633;0.0038268343236509111;0;0;0;0;0
1.4523971092319008;0.0047139673682599862;0;0;0;0;0
1.4597696833904383;0.0055557023301960285;0;0;0;0;0
1.4671422575489759;0.0063439328416364585;0;0;0;0;0
1.4745148317075134;0.0070710678118654762;0;0;0;0;0
1.4818874058660509;0.0077301045336273678;0;0;0;0;0
1.4892599800245887;0.0083146961230254699;0;0;0;0;0
1.4966325541831262;0.0088192126434835632;0;0;0;0;0
1.5040051283416638;0.0092387953251128769;0;0;0;0;0
1.5113777025002013;0.0095694033573220944;0;0;0;0;0
1.5187502766587389;0.0098078528040323014;0;0;0;0;0
1.5261228508172764;0.0099518472667219672;0;0;0;0;0
1.5334954249758139;0.01;0;0;0;0;0
1.5408679991343517;0.0099518472667219689;0;0;0;0;0
1.5482405732928892;0.0098078528040323049;0;0;0;0;0
1.5556131474514268;0.0095694033573220892;0;0;0;0;0
1.5629857216099643;0.0092387953251128682;0;0;0;0;0
1.5703582957685018;0.0088192126434835545;0;0;0;0;0
1.5777308699270394;0.0083146961230254578;0;0;0;0;0
1.5851034440855769;0.0077301045336273791;0;0;0;0;0
1.5924760182441147;0.0070710678118654623;0;0;0;0;0
1.5998485924026522;0.0063439328416364437;0;0;0;0;0
1.6072211665611897;0.0055557023301960129;0;0;0;0;0
1.6145937407197273;0.0047139673682599697;0;0;0;0;0
1.6219663148782648;0.0038268343236508933;0;0;0;0;0
1.6293388890368024;0.0029028467725446222;0;0;0;0;0
1.6367114631953399;0.0019509032201612845;0;0;0;0;0
1.6440840373538774;0.00098017140329561127;0;0;0;0;0
1.6514566115124152;-2.6954609193973538e-17;0;0;0;0;0
1.6588291856709527;-0.00098017140329562948;0;0;0;0;0
1.6662017598294903;-0.0019509032201613025;0;0;0;0;0
1.6735743339880278;-0.00290284677254464;0;0;0;0;0
1.6809469081465653;-0.0038268343236509102;0;0;0;0;0
1.6883194823051029;-0.0047139673682599853;0;0;0;0;0
1.6956920564636404;-0.0055557023301960277;0;0;0;0;0
1.7030646306221782;-0.0063439328416364576;0;0;0;0;0
1.7104372047807157;-0.0070710678118654762;0;0;0;0;0
1.7178097789392532;-0.0077301045336273678;0;0;0;0;0
1.7251823530977908;-0.0083146961230254491;0;0;0;0;0
1.7325549272563283;-0.0088192126434835458;0;0;0;0;0
1.7399275014148659;-0.009238795325112863;0;0;0;0;0
1.7473000755734034;-0.009569403357322084;0;0;0;0;0
1.7546726497319411;-0.0098078528040323083;0;0;0;0;0
1.7620452238904787;-0.0099518472667219707;0;0;0;0;0
1.7694177980490162;-0.01;0;0;0;0;0
1.7767903722075538;-0.0099518472667219689;0;0;0;0;0
1.7841629463660913;-0.0098078528040323049;0;0;0;0;0
1.7915355205246288;-0.0095694033573220892;0;0;0;0;0
1.7989080946831664;-0.00923879532511287;0;0;0;0;0
1.8062806688417039;-0.0088192126434835545;0;0;0;0;0
1.8136532430002417;-0.0083146961230254387;0;0;0;0;0
1.8210258171587792;-0.0077301045336273565;0;0;0;0;0
1.8283983913173167;-0.0070710678118654641;0;0;0;0;0
1.8357709654758543;-0.0063439328416364437;0;0;0;0;0
1.8431435396343918;-0.0055557023301960138;0;0;0;0;0
1.8505161137929294;-0.0047139673682599706;0;0;0;0;0
1.8578886879514669;-0.0038268343236508946;0;0;0;0;0
1.8652612621100046;-0.0029028467725446235;0;0;0;0;0
1.8726338362685422;-0.0019509032201612858;0;0;0;0;0
1.8800064104270797;-0.00098017140329561235;0;0;0;0;0
1.8873789845856173;-9.7971743931788255e-18;0;0;0;0;0
1.8947515587441548;0.00098017140329559284;0;0;0;0;0
1.9021241329026923;0.0019509032201612665;0;0;0;0;0
1.9094967070612299;0.0029028467725446044;0;0;0;0;0
1.9168692812197676;0.0038268343236509089;0;0;0;0;0
1.9242418553783052;0.0047139673682599845;0;0;0;0;0
1.9316144295368427;0.0055557023301960277;0;0;0;0;0
1.9389870036953802;0.0063439328416364576;0;0;0;0;0
1.9463595778539178;0.0070710678118654745;0;0;0;0;0
1.9537321520124553;0.0077301045336273669;0;0;0;0;0
1.9611047261709929;0.0083146961230254474;0;0;0;0;0
1.9684773003295306;0.0088192126434835615;0;0;0;0;0
1.9758498744880681;0.0092387953251128752;0;0;0;0;0
1.9832224486466057;0.0095694033573220944;0;0;0;0;0
1.9905950228051432;0.0098078528040323083;0;0;0;0;0
1.9979675969636808;0.0099518472667219707;0;0;0;0;0
2.0053401711222185;0.01;0;0;0;0;0
2.0127127452807558;0.0099518472667219689;0;0;0;0;0
2.0200853194392936;0.0098078528040322979;0;0;0;0;0
2.0274578935978309;0.0095694033573220892;0;0;0;0;0
2.0348304677563687;0.0092387953251128561;0;0;0;0;0
2.042203041914906;0.0088192126434835545;0;0;0;0;0
2.0495756160734437;0.0083146961230254595;0;0;0;0;0
2.0569481902319815;0.0077301045336273582;0;0;0;0;0
2.0643207643905188;0.0070710678118654892;0;0;0;0;0
2.0716933385490566;0.0063439328416364446;0;0;0;0;0
2.0790659127075939;0.0055557023301960442;0;0;0;0;0
2.0864384868661316;0.0047139673682599715;0;0;0;0;0
2.093811061024669;0.0038268343236509284;0;0;0;0;0
2.1011836351832067;0.0029028467725446244;0;0;0;0;0
2.1085562093417445;0.001950903220161252;0;0;0;0;0
2.1159287835002818;0.00098017140329561365;0;0;0;0;0
2.1233013576588196;-2.4505315595678831e-17;0;0;0;0;0
2.1306739318173569;-0.00098017140329559175;0;0;0;0;0
2.1380465059758946;-0.0019509032201612999;0;0;0;0;0
2.1454190801344319;-0.0029028467725446035;0;0;0;0;0
2.1527916542929697;-0.003826834323650908;0;0;0;0;0
2.1601642284515075;-0.0047139673682600148;0;0;0;0;0
2.1675368026100448;-0.0055557023301960259;0;0;0;0;0
2.1749093767685825;-0.0063439328416364828;0;0;0;0;0
2.1822819509271199;-0.0070710678118654736;0;0;0;0;0
2.1896545250856576;-0.0077301045336273886;0;0;0;0;0
2.1970270992441949;-0.0083146961230254474;0;0;0;0;0
2.2043996734027327;-0.0088192126434835615;0;0;0;0;0
2.2117722475612704;-0.0092387953251128752;0;0;0;0;0
2.2191448217198078;-0.0095694033573220944;0;0;0;0;0
2.2265173958783455;-0.0098078528040323066;0;0;0;0;0
2.2338899700368828;-0.0099518472667219689;0;0;0;0;0
2.2412625441954206;-0.01;0;0;0;0;0
2.2486351183539579;-0.0099518472667219724;0;0;0;0;0
2.2560076925124957;-0.0098078528040323049;0;0;0;0;0
2.263380266671033;-0.0095694033573221014;0;0;0;0;0
2.2707528408295707;-0.0092387953251128717;0;0;0;0;0
2.2781254149881085;-0.0088192126434835389;0;0;0;0;0
2.2854979891466458;-0.0083146961230254595;0;0;0;0;0
2.2928705633051836;-0.0077301045336273582;0;0;0;0;0
2.3002431374637209;-0.0070710678118654901;0;0;0;0;0
2.3076157116222586;-0.0063439328416364463;0;0;0;0;0
2.314988285780796;-0.005555702330196045;0;0;0;0;0
2.3223608599393337;-0.0047139673682599723;0;0;0;0;0
2.3297334340978715;-0.0038268343236508642;0;0;0;0;0
2.3371060082564088;-0.0029028467725446257;0;0;0;0;0
2.3444785824149466;-0.0019509032201612533;0;0;0;0;0
2.3518511565734839;-0.00098017140329561495;0;0;0;0;0
2.3592237307320216;2.328066879653148e-17;0;0;0;0;0
2.3665963048905589;0.00098017140329559045;0;0;0;0;0
2.3739688790490967;0.0019509032201612988;0;0;0;0;0
2.3813414532076345;0.0029028467725446361;0;0;0;0;0
2.3887140273661718;0.0038268343236509067;0;0;0;0;0
2.3960866015247095;0.0047139673682599819;0;0;0;0;0
2.4034591756832469;0.0055557023301959956;0;0;0;0;0
2.4108317498417846;0.006343932841636455;0;0;0;0;0
2.4182043240003219;0.0070710678118654485;0;0;0;0;0
2.4255768981588597;0.007730104533627366;0;0;0;0;0
2.4329494723173974;0.0083146961230254664;0;0;0;0;0
2.4403220464759348;0.0088192126434835441;0;0;0;0;0
2.4476946206344725;0.0092387953251128734;0;0;0;0;0
2.4550671947930098;0.0095694033573220823;0;0;0;0;0
2.4624397689515476;0.0098078528040323066;0;0;0;0;0
2.4698123431100849;0.0099518472667219655;0;0;0;0;0
2.4771849172686227;0.01;0;0;0;0;0
2.4845574914271604;0.0099518472667219655;0;0;0;0;0
2.4919300655856977;0.0098078528040323049;0;0;0;0;0
2.4993026397442355;0.0095694033573220788;0;0;0;0;0
2.5066752139027728;0.0092387953251128717;0;0;0;0;0
2.5140477880613106;0.0088192126434835389;0;0;0;0;0
2.5214203622198479;0.0083146961230254612;0;0;0;0;0
2.5287929363783856;0.0077301045336273591;0;0;0;0;0
2.5361655105369234;0.0070710678118654407;0;0;0;0;0
2.5435380846954607;0.0063439328416364472;0;0;0;0;0
2.5509106588539985;0.0055557023301959878;0;0;0;0;0
2.5582832330125358;0.0047139673682599741;0;0;0;0;0
2.5656558071710736;0.0038268343236508651;0;0;0;0;0
2.5730283813296109;0.0029028467725446265;0;0;0;0;0
2.5804009554881486;0.0019509032201612544;0;0;0;0;0
2.5877735296466859;0.00098017140329561604;0;0;0;0;0
2.5951461038052237;-2.2056021997384124e-17;0;0;0;0;0
2.6025186779637615;-0.00098017140329566006;0;0;0;0;0
2.6098912521222988;-0.0019509032201612978;0;0;0;0;0
2.6172638262808365;-0.0029028467725446695;0;0;0;0;0
2.6246364004393739;-0.0038268343236509059;0;0;0;0;0
2.6320089745979116;-0.0047139673682600122;0;0;0;0;0
2.6393815487564489;-0.0055557023301960242;0;0;0;0;0
2.6467541229149867;-0.0063439328416364819;0;0;0;0;0
2.6541266970735244;-0.007071067811865471;0;0;0;0;0
2.6614992712320618;-0.0077301045336273869;0;0;0;0;0
2.6688718453905995;-0.0083146961230254456;0;0;0;0;0
2.6762444195491368;-0.0088192126434835615;0;0;0;0;0
2.6836169937076746;-0.0092387953251128613;0;0;0;0;0
2.6909895678662119;-0.0095694033573220927;0;0;0;0;0
2.6983621420247497;-0.0098078528040322997;0;0;0;0;0
2.7057347161832874;-0.0099518472667219689;0;0;0;0;0
2.7131072903418247;-0.01;0;0;0;0;0
2.7204798645003625;-0.0099518472667219689;0;0;0;0;0
2.7278524386588998;-0.0098078528040323118;0;0;0;0;0
2.7352250128174376;-0.0095694033573220909;0;0;0;0;0
2.7425975869759749;-0.0092387953251128856;0;0;0;0;0
2.7499701611345126;-0.0088192126434835563;0;0;0;0;0
2.7573427352930504;-0.0083146961230254422;0;0;0;0;0
2.7647153094515877;-0.0077301045336273825;0;0;0;0;0
2.7720878836101255;-0.0070710678118654667;0;0;0;0;0
2.7794604577686628;-0.0063439328416364758;0;0;0;0;0
2.7868330319272006;-0.0055557023301960173;0;0;0;0;0
2.7942056060857379;-0.0047139673682600062;0;0;0;0;0
2.8015781802442756;-0.0038268343236508989;0;0;0;0;0
2.8089507544028134;-0.002902846772544594;0;0;0;0;0
2.8163233285613507;-0.0019509032201612906;0;0;0;0;0
2.8236959027198885;-0.00098017140329558199;0;0;0;0;0
2.8310684768784258;-1.4695761589768237e-17;0;0;0;0;0
2.8384410510369635;0.00098017140329562341;0;0;0;0;0
2.8458136251955009;0.0019509032201612618;0;0;0;0;0
2.8531861993540386;0.0029028467725446339;0;0;0;0;0
2.8605587735125764;0.0038268343236509375;0;0;0;0;0
2.8679313476711137;0.0047139673682599801;0;0;0;0;0
2.8753039218296514;0.005555702330196052;0;0;0;0;0
2.8826764959881888;0.0063439328416364524;0;0;0;0;0
2.8900490701467265;0.0070710678118654962;0;0;0;0;0
2.8974216443052638;0.0077301045336273634;0;0;0;0;0
2.9047942184638016;0.0083146961230254647;0;0;0;0;0
2.9121667926223394;0.0088192126434835771;0;0;0;0;0
2.9195393667808767;0.0092387953251128734;0;0;0;0;0
2.9269119409394144;0.0095694033573221031;0;0;0;0;0
2.9342845150979517;0.0098078528040323066;0;0;0;0;0
2.9416570892564895;0.0099518472667219724;0;0;0;0;0
2.9490296634150268;0.01;0;0;0;0;0
2.9564022375735646;0.0099518472667219655;0;0;0;0;0
2.9637748117321019;0.0098078528040323049;0;0;0;0;0
2.9711473858906396;0.0095694033573220805;0;0;0;0;0
2.9785199600491774;0.0092387953251128439;0;0;0;0;0
2.9858925342077147;0.0088192126434835406;0;0;0;0;0
2.9932651083662525;0.0083146961230254231;0;0;0;0;0
3.0006376825247898;0.00773010453362736;0;0;0;0;0
3.0080102566833276;0.0070710678118654424;0;0;0;0;0
3.0153828308418649;0.0063439328416364498;0;0;0;0;0
3.0227554050004026;0.0055557023301959895;0;0;0;0;0
3.0301279791589404;0.0047139673682599758;0;0;0;0;0
3.0375005533174777;0.0038268343236509328;0;0;0;0;0
3.0448731274760155;0.0029028467725446296;0;0;0;0;0
3.0522457016345528;0.0019509032201613266;0;0;0;0;0
3.0596182757930905;0.00098017140329561864;0;0;0;0;0
3.0669908499516279;5.1447545176920603e-17;0;0;0;0;0
3.0743634241101656;-0.00098017140329558698;0;0;0;0;0
3.0817359982687034;-0.0019509032201612954;0;0;0;0;0
3.0891085724272407;-0.0029028467725445988;0;0;0;0;0
3.0964811465857784;-0.0038268343236509033;0;0;0;0;0
3.1038537207443158;-0.004713967368259948;0;0;0;0;0
3.1112262949028535;-0.0055557023301960216;0;0;0;0;0
3.1185988690613908;-0.0063439328416364247;0;0;0;0;0
3.1259714432199286;-0.0070710678118654701;0;0;0;0;0
3.1333440173784664;-0.007730104533627386;0;0;0;0;0
3.1407165915370037;-0.0083146961230254439;0;0;0;0;0
3.1480891656955414;-0.008819212643483558;0;0;0;0;0
3.1554617398540787;-0.0092387953251128595;0;0;0;0;0
3.1628343140126165;-0.0095694033573220909;0;0;0;0;0
3.1702068881711538;-0.0098078528040322997;0;0;0;0;0
3.1775794623296916;-0.0099518472667219689;0;0;0;0;0
3.1849520364882293;-0.01;0;0;0;0;0
3.1923246106467666;-0.0099518472667219689;0;0;0;0;0
3.1996971848053044;-0.0098078528040322997;0;0;0;0;0
3.2070697589638417;-0.0095694033573220909;0;0;0;0;0
3.2144423331223795;-0.0092387953251128595;0;0;0;0;0
3.2218149072809168;-0.008819212643483558;0;0;0;0;0
3.2291874814394546;-0.0083146961230254439;0;0;0;0;0
3.2365600555979923;-0.0077301045336273392;0;0;0;0;0
3.2439326297565296;-0.0070710678118654684;0;0;0;0;0
3.2513052039150674;-0.0063439328416364229;0;0;0;0;0
3.2586777780736047;-0.0055557023301960199;0;0;0;0;0
3.2660503522321425;-0.0047139673682599454;0;0;0;0;0
3.2734229263906798;-0.0038268343236509011;0;0;0;0;0
3.2807955005492175;-0.0029028467725445966;0;0;0;0;0
3.2881680747077549;-0.0019509032201612928;0;0;0;0;0
3.2955406488662926;-0.00098017140329558438;0;0;0;0;0
3.3029132230248304;5.3909218387947076e-17;0;0;0;0;0
3.3102857971833677;0.00098017140329562102;0;0;0;0;0
3.3176583713419054;0.001950903220161329;0;0;0;0;0
3.3250309455004428;0.0029028467725446317;0;0;0;0;0
3.3324035196589805;0.0038268343236509349;0;0;0;0;0
3.3397760938175178;0.0047139673682599784;0;0;0;0;0
3.3471486679760556;0.0055557023301960511;0;0;0;0;0
3.3545212421345934;0.0063439328416365062;0;0;0;0;0
3.3618938162931307;0.0070710678118654944;0;0;0;0;0
3.3692663904516684;0.0077301045336273626;0;0;0;0;0
3.3766389646102057;0.008314696123025463;0;0;0;0;0
3.3840115387687435;0.0088192126434835424;0;0;0;0;0
3.3913841129272808;0.0092387953251128734;0;0;0;0;0
3.3987566870858186;0.0095694033573220823;0;0;0;0;0
3.4061292612443563;0.0098078528040323049;0;0;0;0;0
3.4135018354028936;0.0099518472667219655;0;0;0;0;0
3.4208744095614314;0.01;0;0;0;0;0
3.4282469837199687;0.0099518472667219724;0;0;0;0;0
3.4356195578785065;0.0098078528040323049;0;0;0;0;0
3.4429921320370438;0.0095694033573221014;0;0;0;0;0
3.4503647061955816;0.0092387953251128734;0;0;0;0;0
3.4577372803541193;0.0088192126434835424;0;0;0;0;0
3.4651098545126566;0.008314696123025463;0;0;0;0;0
3.4724824286711944;0.0077301045336273626;0;0;0;0;0
3.4798550028297317;0.0070710678118654944;0;0;0;0;0
3.4872275769882695;0.0063439328416364507;0;0;0;0;0
3.4946001511468068;0.0055557023301960511;0;0;0;0;0
3.5019727253053445;0.0047139673682599784;0;0;0;0;0
3.5093452994638823;0.0038268343236508694;0;0;0;0;0
3.5167178736224196;0.0029028467725446317;0;0;0;0;0
3.5240904477809574;0.0019509032201612592;0;0;0;0;0
3.5314630219394947;0.00098017140329562081;0;0;0;0;0
3.5388355960980324;-1.7157434800794713e-17;0;0;0;0;0
3.5462081702565698;-0.00098017140329558438;0;0;0;0;0
3.5535807444151075;-0.001950903220161293;0;0;0;0;0
3.5609533185736453;-0.0029028467725446643;0;0;0;0;0
3.5683258927321826;-0.0038268343236509011;0;0;0;0;0
3.5756984668907204;-0.0047139673682600079;0;0;0;0;0
3.5830710410492577;-0.0055557023301960199;0;0;0;0;0
3.5904436152077954;-0.0063439328416364776;0;0;0;0;0
3.5978161893663327;-0.0070710678118654684;0;0;0;0;0
3.6051887635248705;-0.0077301045336273834;0;0;0;0;0
3.6125613376834078;-0.0083146961230254439;0;0;0;0;0
3.6199339118419456;-0.008819212643483558;0;0;0;0;0
3.6273064860004833;-0.0092387953251128873;0;0;0;0;0
3.6346790601590206;-0.0095694033573220909;0;0;0;0;0
3.6420516343175584;-0.0098078528040323118;0;0;0;0;0
3.6494242084760957;-0.0099518472667219689;0;0;0;0;0
3.6567967826346335;-0.01;0;0;0;0;0
3.6641693567931708;-0.0099518472667219689;0;0;0;0;0
3.6715419309517086;-0.0098078528040322997;0;0;0;0;0
3.6789145051102463;-0.0095694033573220719;0;0;0;0;0
3.6862870792687836;-0.0092387953251128595;0;0;0;0;0
3.6936596534273214;-0.008819212643483525;0;0;0;0;0
3.7010322275858587;-0.0083146961230254439;0;0;0;0;0
3.7084048017443965;-0.00773010453362734;0;0;0;0;0
3.7157773759029338;-0.0070710678118654701;0;0;0;0;0
3.7231499500614715;-0.0063439328416364247;0;0;0;0;0
3.7305225242200093;-0.0055557023301960216;0;0;0;0;0
3.7378950983785466;-0.004713967368259948;0;0;0;0;0
3.7452676725370844;-0.0038268343236509033;0;0;0;0;0
3.7526402466956217;-0.0029028467725445988;0;0;0;0;0
3.7600128208541594;-0.0019509032201612954;0;0;0;0;0
3.7673853950126968;-0.00098017140329565745;0;0;0;0;0
3.7747579691712345;-1.9594348786357651e-17;0;0;0;0;0
3.7821305433297723;0.00098017140329561864;0;0;0;0;0
3.7895031174883096;0.001950903220161257;0;0;0;0;0
3.7968756916468474;0.0029028467725446296;0;0;0;0;0
3.8042482658053847;0.0038268343236508673;0;0;0;0;0
3.8116208399639224;0.0047139673682599758;0;0;0;0;0
3.8189934141224597;0.0055557023301959895;0;0;0;0;0
3.8263659882809975;0.0063439328416364498;0;0;0;0;0
3.8337385624395353;0.0070710678118654927;0;0;0;0;0
3.8411111365980726;0.00773010453362736;0;0;0;0;0
3.8484837107566103;0.008314696123025463;0;0;0;0;0
3.8558562849151476;0.0088192126434835406;0;0;0;0;0
3.8632288590736854;0.0092387953251128717;0;0;0;0;0
3.8706014332322227;0.0095694033573220805;0;0;0;0;0
3.8779740073907605;0.0098078528040323049;0;0;0;0;0
3.8853465815492982;0.0099518472667219724;0;0;0;0;0
3.8927191557078356;0.01;0;0;0;0;0
3.9000917298663733;0.0099518472667219655;0;0;0;0;0
3.9074643040249106;0.0098078528040323066;0;0;0;0;0
3.9148368781834484;0.0095694033573220823;0;0;0;0;0
3.9222094523419857;0.0092387953251128734;0;0;0;0;0
3.9295820265005235;0.0088192126434835424;0;0;0;0;0
3.9369546006590612;0.0083146961230254265;0;0;0;0;0
3.9443271748175985;0.0077301045336273634;0;0;0;0;0
3.9516997489761363;0.0070710678118654459;0;0;0;0;0
3.9590723231346736;0.0063439328416364524;0;0;0;0;0
3.9664448972932114;0.005555702330195993;0;0;0;0;0
3.9738174714517487;0.0047139673682599801;0;0;0;0;0
3.9811900456102864;0.0038268343236508716;0;0;0;0;0
3.9885626197688238;0.0029028467725446339;0;0;0;0;0
3.9959351939273615;0.0019509032201612618;0;0;0;0;0
4.0033077680858993;0.00098017140329555272;0;0;0;0;0
4.010680342244437;-8.5762414778510029e-17;0;0;0;0;0
4.0180529164029739;-0.00098017140329558199;0;0;0;0;0
4.0254254905615117;-0.0019509032201612906;0;0;0;0;0
4.0327980647200494;-0.0029028467725446621;0;0;0;0;0
4.0401706388785872;-0.0038268343236509644;0;0;0;0;0
4.0475432130371249;-0.0047139673682600062;0;0;0;0;0
4.0549157871956618;-0.0055557023301960173;0;0;0;0;0
4.0622883613541996;-0.0063439328416364758;0;0;0;0;0
4.0696609355127373;-0.007071067811865517;0;0;0;0;0
4.0770335096712751;-0.0077301045336273825;0;0;0;0;0
4.084406083829812;-0.0083146961230254422;0;0;0;0;0
4.0917786579883497;-0.0088192126434835563;0;0;0;0;0
4.0991512321468875;-0.0092387953251128578;0;0;0;0;0
4.1065238063054252;-0.0095694033573220909;0;0;0;0;0
4.113896380463963;-0.0098078528040323118;0;0;0;0;0
4.1212689546224999;-0.0099518472667219689;0;0;0;0;0
4.1286415287810376;-0.01;0;0;0;0;0
4.1360141029395754;-0.0099518472667219689;0;0;0;0;0
4.1433866770981131;-0.0098078528040322997;0;0;0;0;0
4.15075925125665;-0.0095694033573221135;0;0;0;0;0
4.1581318254151878;-0.0092387953251128873;0;0;0;0;0
4.1655043995737255;-0.0088192126434835615;0;0;0;0;0
4.1728769737322633;-0.0083146961230254456;0;0;0;0;0
4.1802495478908011;-0.0077301045336273426;0;0;0;0;0
4.1876221220493379;-0.0070710678118655222;0;0;0;0;0
4.1949946962078757;-0.0063439328416364819;0;0;0;0;0
4.2023672703664134;-0.0055557023301960242;0;0;0;0;0
4.2097398445249512;-0.0047139673682599498;0;0;0;0;0
4.217112418683489;-0.0038268343236508404;0;0;0;0;0
4.2244849928420258;-0.002902846772544669;0;0;0;0;0
4.2318575670005636;-0.0019509032201612978;0;0;0;0;0
4.2392301411591014;-0.00098017140329558937;0;0;0;0;0
4.2466027153176391;4.9010631191357662e-17;0;0;0;0;0
4.253975289476176;0.00098017140329554535;0;0;0;0;0
4.2613478636347137;0.0019509032201612544;0;0;0;0;0
4.2687204377932515;0.0029028467725446265;0;0;0;0;0
4.2760930119517893;0.0038268343236509306;0;0;0;0;0
4.283465586110327;0.0047139673682600365;0;0;0;0;0
4.2908381602688639;0.0055557023301959878;0;0;0;0;0
4.2982107344274016;0.0063439328416364472;0;0;0;0;0
4.3055833085859394;0.0070710678118654918;0;0;0;0;0
4.3129558827444772;0.0077301045336274042;0;0;0;0;0
4.3203284569030149;0.0083146961230254994;0;0;0;0;0
4.3277010310615518;0.0088192126434835389;0;0;0;0;0
4.3350736052200896;0.0092387953251128717;0;0;0;0;0
4.3424461793786273;0.0095694033573221014;0;0;0;0;0
4.3498187535371651;0.0098078528040323187;0;0;0;0;0
4.3571913276957019;0.0099518472667219655;0;0;0;0;0
4.3645639018542397;0.01;0;0;0;0;0
4.3719364760127775;0.0099518472667219655;0;0;0;0;0
4.3793090501713152;0.0098078528040322927;0;0;0;0;0
4.386681624329853;0.0095694033573220615;0;0;0;0;0
4.3940541984883899;0.0092387953251128734;0;0;0;0;0
4.4014267726469276;0.0088192126434835441;0;0;0;0;0
4.4087993468054654;0.0083146961230254265;0;0;0;0;0
4.4161719209640031;0.007730104533627366;0;0;0;0;0
4.4235444951225409;0.0070710678118654485;0;0;0;0;0
4.4309170692810778;0.006343932841636455;0;0;0;0;0
4.4382896434396155;0.0055557023301959956;0;0;0;0;0
4.4456622175981533;0.0047139673682599819;0;0;0;0;0
4.453034791756691;0.0038268343236508742;0;0;0;0;0
4.4604073659152279;0.0029028467725446361;0;0;0;0;0
4.4677799400737657;0.0019509032201612641;0;0;0;0;0
4.4751525142323034;0.00098017140329562579;0;0;0;0;0
4.4825250883908412;-1.22588476042053e-17;0;0;0;0;0
4.4898976625493789;-0.00098017140329565008;0;0;0;0;0
4.4972702367079158;-0.0019509032201612184;0;0;0;0;0
4.5046428108664536;-0.0029028467725445918;0;0;0;0;0
4.5120153850249913;-0.0038268343236508968;0;0;0;0;0
4.5193879591835291;-0.0047139673682600036;0;0;0;0;0
4.526760533342066;-0.0055557023301959566;0;0;0;0;0
4.5341331075006037;-0.0063439328416364186;0;0;0;0;0
4.5415056816591415;-0.0070710678118654649;0;0;0;0;0
4.5488782558176792;-0.0077301045336273808;0;0;0;0;0
4.556250829976217;-0.0083146961230254803;0;0;0;0;0
4.5636234041347539;-0.0088192126434835216;0;0;0;0;0
4.5709959782932916;-0.0092387953251128561;0;0;0;0;0
4.5783685524518294;-0.0095694033573220892;0;0;0;0;0
4.5857411266103671;-0.0098078528040323118;0;0;0;0;0
4.5931137007689049;-0.0099518472667219759;0;0;0;0;0
4.6004862749274418;-0.01;0;0;0;0;0
4.6078588490859795;-0.0099518472667219689;0;0;0;0;0
4.6152314232445173;-0.0098078528040322997;0;0;0;0;0
4.6226039974030551;-0.0095694033573220736;0;0;0;0;0
4.6299765715615919;-0.009238795325112889;0;0;0;0;0
4.6373491457201297;-0.0088192126434835615;0;0;0;0;0
4.6447217198786674;-0.0083146961230254474;0;0;0;0;0
4.6520942940372052;-0.0077301045336273435;0;0;0;0;0
4.659466868195743;-0.0070710678118654233;0;0;0;0;0
4.6668394423542798;-0.0063439328416364828;0;0;0;0;0
4.6742120165128176;-0.0055557023301960259;0;0;0;0;0
4.6815845906713554;-0.0047139673682599524;0;0;0;0;0
4.6889571648298931;-0.0038268343236508425;0;0;0;0;0
4.6963297389884309;-0.0029028467725445354;0;0;0;0;0
4.7037023131469677;-0.0019509032201612999;0;0;0;0;0
4.7110748873055055;-0.00098017140329559175;0;0;0;0;0
4.7184474614640433;4.6561337593062961e-17;0;0;0;0;0
4.725820035622581;0.00098017140329568434;0;0;0;0;0
4.7331926097811179;0.001950903220161252;0;0;0;0;0
4.7405651839396556;0.0029028467725446244;0;0;0;0;0
4.7479377580981934;0.0038268343236509284;0;0;0;0;0
4.7553103322567312;0.0047139673682600339;0;0;0;0;0
4.7626829064152689;0.0055557023301960442;0;0;0;0;0
4.7700554805738058;0.0063439328416364446;0;0;0;0;0
4.7774280547323436;0.0070710678118654892;0;0;0;0;0
4.7848006288908813;0.0077301045336274025;0;0;0;0;0
4.7921732030494191;0.0083146961230254595;0;0;0;0;0
4.7995457772079568;0.0088192126434835719;0;0;0;0;0
4.8069183513664937;0.0092387953251128439;0;0;0;0;0
4.8142909255250315;0.0095694033573220996;0;0;0;0;0
4.8216634996835692;0.0098078528040323049;0;0;0;0;0
4.829036073842107;0.0099518472667219793;0;0;0;0;0
4.8364086480006439;0.01;0;0;0;0;0
4.8437812221591816;0.0099518472667219655;0;0;0;0;0
4.8511537963177194;0.0098078528040323083;0;0;0;0;0
4.8585263704762571;0.0095694033573220632;0;0;0;0;0
4.8658989446347949;0.0092387953251128491;0;0;0;0;0
4.8732715187933318;0.0088192126434835458;0;0;0;0;0
4.8806440929518695;0.0083146961230254682;0;0;0;0;0
4.8880166671104073;0.0077301045336273209;0;0;0;0;0
4.895389241268945;0.0070710678118654493;0;0;0;0;0
4.9027618154274819;0.0063439328416364576;0;0;0;0;0
4.9101343895860197;0.0055557023301960563;0;0;0;0;0
4.9175069637445574;0.0047139673682599212;0;0;0;0;0
4.9248795379030952;0.0038268343236508764;0;0;0;0;0
4.9322521120616329;0.0029028467725445029;0;0;0;0;0
4.9396246862201698;0.0019509032201613361;0;0;0;0;0
4.9469972603787076;0.00098017140329555771;0;0;0;0;0
4.9543698345372453;-9.8095540059105926e-18;0;0;0;0;0
4.9617424086957831;-0.00098017140329557701;0;0;0;0;0
4.9691149828543208;-0.0019509032201613554;0;0;0;0;0
4.9764875570128577;-0.0029028467725446573;0;0;0;0;0
4.9838601311713955;-0.0038268343236508946;0;0;0;0;0
4.9912327053299332;-0.0047139673682599385;0;0;0;0;0
4.998605279488471;-0.0055557023301960728;0;0;0;0;0
5.0059778536470079;-0.0063439328416364715;0;0;0;0;0
5.0133504278055456;-0.0070710678118654641;0;0;0;0;0
5.0207230019640834;-0.0077301045336273348;0;0;0;0;0
5.0280955761226211;-0.0083146961230254786;0;0;0;0;0
5.0354681502811589;-0.0088192126434835545;0;0;0;0;0
5.0428407244396958;-0.0092387953251128561;0;0;0;0;0
5.0502132985982335;-0.0095694033573220684;0;0;0;0;0
5.0575858727567713;-0.0098078528040323118;0;0;0;0;0
5.0649584469153091;-0.0099518472667219689;0;0;0;0;0
5.0723310210738468;-0.01;0;0;0;0;0
5.0797035952323837;-0.0099518472667219776;0;0;0;0;0
5.0870761693909214;-0.0098078528040323014;0;0;0;0;0
5.0944487435494592;-0.0095694033573220944;0;0;0;0;0
5.101821317707997;-0.0092387953251128353;0;0;0;0;0
5.1091938918665338;-0.0088192126434835962;0;0;0;0;0
5.1165664660250716;-0.0083146961230254491;0;0;0;0;0
5.1239390401836094;-0.0077301045336273903;0;0;0;0;0
5.1313116143421471;-0.007071067811865425;0;0;0;0;0
5.1386841885006849;-0.0063439328416364307;0;0;0;0;0
5.1460567626592217;-0.0055557023301960277;0;0;0;0;0
5.1534293368177595;-0.0047139673682600174;0;0;0;0;0
5.1608019109762973;-0.0038268343236508447;0;0;0;0;0
5.168174485134835;-0.0029028467725446057;0;0;0;0;0
5.1755470592933719;-0.0019509032201613025;0;0;0;0;0
5.1829196334519096;-0.00098017140329566483;0;0;0;0;0
5.1902922076104474;4.4112043994768248e-17;0;0;0;0;0
5.1976647817689852;0.00098017140329561127;0;0;0;0;0
5.2050373559275229;0.001950903220161389;0;0;0;0;0
5.2124099300860598;0.0029028467725445545;0;0;0;0;0
5.2197825042445976;0.0038268343236509262;0;0;0;0;0
5.2271550784031353;0.0047139673682599697;0;0;0;0;0
5.2345276525616731;0.0055557023301961014;0;0;0;0;0
5.2419002267202108;0.0063439328416364984;0;0;0;0;0
5.2492728008787477;0.0070710678118654866;0;0;0;0;0
5.2566453750372855;0.0077301045336273556;0;0;0;0;0
5.2640179491958232;0.0083146961230254977;0;0;0;0;0
5.271390523354361;0.0088192126434835701;0;0;0;0;0
5.2787630975128979;0.0092387953251128682;0;0;0;0;0
5.2861356716714356;0.0095694033573220788;0;0;0;0;0
5.2935082458299734;0.009807852804032317;0;0;0;0;0
5.3008808199885111;0.0099518472667219724;0;0;0;0;0
5.3082533941470489;0.01;0;0;0;0;0
5.3156259683055858;0.0099518472667219741;0;0;0;0;0
5.3229985424641235;0.0098078528040322945;0;0;0;0;0
5.3303711166226613;0.009569403357322084;0;0;0;0;0
5.337743690781199;0.0092387953251128769;0;0;0;0;0
5.3451162649397368;0.0088192126434835129;0;0;0;0;0
5.3524888390982737;0.00831469612302543;0;0;0;0;0
5.3598614132568114;0.0077301045336273678;0;0;0;0;0
5.3672339874153492;0.0070710678118655014;0;0;0;0;0
5.3746065615738869;0.0063439328416364038;0;0;0;0;0
5.3819791357324238;0.0055557023301959999;0;0;0;0;0
5.3893517098909616;0.0047139673682599862;0;0;0;0;0
5.3967242840494993;0.003826834323650944;0;0;0;0;0
5.4040968582080371;0.0029028467725445727;0;0;0;0;0
5.4114694323665748;0.0019509032201612689;0;0;0;0;0
5.4188420065251117;0.00098017140329563078;0;0;0;0;0
5.4262145806836495;6.3694013168394139e-17;0;0;0;0;0
5.4335871548421872;-0.00098017140329564531;0;0;0;0;0
5.440959729000725;-0.0019509032201612834;0;0;0;0;0
5.4483323031592628;-0.0029028467725447232;0;0;0;0;0
5.4557048773177996;-0.0038268343236508265;0;0;0;0;0
5.4630774514763374;-0.0047139673682599992;0;0;0;0;0
5.4704500256348751;-0.0055557023301960121;0;0;0;0;0
5.4778225997934129;-0.0063439328416365253;0;0;0;0;0
5.4851951739519498;-0.0070710678118654112;0;0;0;0;0
5.4925677481104875;-0.0077301045336273782;0;0;0;0;0
5.4999403222690253;-0.0083146961230254387;0;0;0;0;0
5.5073128964275631;-0.0088192126434835857;0;0;0;0;0
5.5146854705861008;-0.0092387953251128821;0;0;0;0;0
5.5220580447446377;-0.0095694033573220892;0;0;0;0;0
5.5294306189031754;-0.0098078528040322962;0;0;0;0;0
5.5368031930617132;-0.0099518472667219759;0;0;0;0;0
5.544175767220251;-0.01;0;0;0;0;0
5.5515483413787878;-0.0099518472667219707;0;0;0;0;0
5.5589209155373256;-0.0098078528040323153;0;0;0;0;0
5.5662934896958634;-0.0095694033573220736;0;0;0;0;0
5.5736660638544011;-0.009238795325112863;0;0;0;0;0
5.5810386380129389;-0.0088192126434834955;0;0;0;0;0
5.5884112121714757;-0.008314696123025489;0;0;0;0;0
5.5957837863300135;-0.007730104533627347;0;0;0;0;0
5.6031563604885513;-0.0070710678118654771;0;0;0;0;0
5.610528934647089;-0.006343932841636377;0;0;0;0;0
5.6179015088056268;-0.0055557023301959704;0;0;0;0;0
5.6252740829641636;-0.0047139673682599567;0;0;0;0;0
5.6326466571227014;-0.0038268343236509124;0;0;0;0;0
5.6400192312812392;-0.0029028467725445402;0;0;0;0;0
5.6473918054397769;-0.0019509032201612353;0;0;0;0;0
5.6547643795983138;-0.00098017140329559652;0;0;0;0;0
5.6621369537568516;-2.9391523179536474e-17;0;0;0;0;0
5.6695095279153893;0.00098017140329567957;0;0;0;0;0
5.6768821020739271;0.0019509032201613168;0;0;0;0;0
5.6842546762324648;0.00290284677254462;0;0;0;0;0
5.6916272503910017;0.0038268343236508577;0;0;0;0;0
5.6989998245495395;0.0047139673682600296;0;0;0;0;0
5.7063723987080772;0.0055557023301960398;0;0;0;0;0
5.713744972866615;0.006343932841636442;0;0;0;0;0
5.7211175470251527;0.0070710678118655361;0;0;0;0;0
5.7284901211836896;0.0077301045336273088;0;0;0;0;0
5.7358626953422274;0.0083146961230254578;0;0;0;0;0
5.7432352695007651;0.0088192126434835354;0;0;0;0;0
5.7506078436593029;0.009238795325112896;0;0;0;0;0
5.7579804178178398;0.009569403357322058;0;0;0;0;0
5.7653529919763775;0.0098078528040323031;0;0;0;0;0
5.7727255661349153;0.0099518472667219655;0;0;0;0;0
5.780098140293453;0.01;0;0;0;0;0
5.7874707144519908;0.0099518472667219672;0;0;0;0;0
5.7948432886105277;0.0098078528040323083;0;0;0;0;0
5.8022158627690654;0.0095694033573221048;0;0;0;0;0
5.8095884369276032;0.0092387953251128509;0;0;0;0;0
5.8169610110861409;0.0088192126434835476;0;0;0;0;0
5.8243335852446787;0.0083146961230253918;0;0;0;0;0
5.8317061594032156;0.0077301045336274146;0;0;0;0;0
5.8390787335617533;0.0070710678118654528;0;0;0;0;0
5.8464513077202911;0.0063439328416364602;0;0;0;0;0
5.8538238818788288;0.0055557023301959418;0;0;0;0;0
5.8611964560373657;0.0047139673682600513;0;0;0;0;0
5.8685690301959035;0.0038268343236508807;0;0;0;0;0
5.8759416043544412;0.0029028467725446434;0;0;0;0;0
5.883314178512979;0.0019509032201612015;0;0;0;0;0
5.8906867526715168;0.00098017140329556248;0;0;0;0;0
5.8980593268300536;-4.9109668093211799e-18;0;0;0;0;0
5.9054319009885914;-0.00098017140329557224;0;0;0;0;0
5.9128044751471291;-0.0019509032201613504;0;0;0;0;0
5.9201770493056669;-0.002902846772544653;0;0;0;0;0
5.9275496234642038;-0.0038268343236508903;0;0;0;0;0
5.9349221976227415;-0.004713967368259935;0;0;0;0;0
5.9422947717812793;-0.0055557023301960684;0;0;0;0;0
5.9496673459398171;-0.006343932841636468;0;0;0;0;0
5.9570399200983548;-0.0070710678118655603;0;0;0;0;0
5.9644124942568917;-0.0077301045336273314;0;0;0;0;0
5.9717850684154294;-0.0083146961230254751;0;0;0;0;0
5.9791576425739672;-0.0088192126434835511;0;0;0;0;0
5.986530216732505;-0.0092387953251129081;0;0;0;0;0
5.9939027908910427;-0.0095694033573221083;0;0;0;0;0
6.0012753650495796;-0.0098078528040323101;0;0;0;0;0
6.0086479392081174;-0.0099518472667219689;0;0;0;0;0
6.0160205133666551;-0.01;0;0;0;0;0
6.0233930875251929;-0.0099518472667219637;0;0;0;0;0
6.0307656616837297;-0.0098078528040323014;0;0;0;0;0
6.0381382358422675;-0.0095694033573220962;0;0;0;0;0
6.0455108100008053;-0.009238795325112837;0;0;0;0;0
6.052883384159343;-0.008819212643483532;0;0;0;0;0
6.0602559583178808;-0.0083146961230254508;0;0;0;0;0
6.0676285324764176;-0.0077301045336273938;0;0;0;0;0
6.0750011066349554;-0.0070710678118655291;0;0;0;0;0
6.0823736807934932;-0.0063439328416364342;0;0;0;0;0
6.0897462549520309;-0.005555702330196032;0;0;0;0;0
6.0971188291105687;-0.004713967368259896;0;0;0;0;0
6.1044914032691056;-0.0038268343236509805;0;0;0;0;0
6.1118639774276433;-0.0029028467725446105;0;0;0;0;0
6.1192365515861811;-0.0019509032201613073;0;0;0;0;0
6.1266091257447188;-0.00098017140329552843;0;0;0;0;0
6.1339816999032557;-1.0289509035384121e-16;0;0;0;0;0
6.1413542740617935;0.00098017140329560628;0;0;0;0;0
6.1487268482203312;0.0019509032201612448;0;0;0;0;0
6.156099422378869;0.0029028467725446855;0;0;0;0;0
6.1634719965374067;0.0038268343236509219;0;0;0;0;0
6.1708445706959436;0.0047139673682599645;0;0;0;0;0
6.1782171448544814;0.0055557023301959782;0;0;0;0;0
6.1855897190130191;0.0063439328416364949;0;0;0;0;0
6.1929622931715569;0.007071067811865484;0;0;0;0;0
6.2003348673300938;0.0077301045336273522;0;0;0;0;0
6.2077074414886315;0.0083146961230254161;0;0;0;0;0
6.2150800156471693;0.0088192126434835684;0;0;0;0;0
6.222452589805707;0.0092387953251128682;0;0;0;0;0
6.2298251639642448;0.0095694033573221187;0;0;0;0;0
6.2371977381227817;0.0098078528040322892;0;0;0;0;0
6.2445703122813194;0.0099518472667219724;0;0;0;0;0
6.2519428864398572;0.01;0;0;0;0;0
6.2593154605983949;0.0099518472667219603;0;0;0;0;0
6.2666880347569327;0.0098078528040322945;0;0;0;0;0
6.2740606089154696;0.0095694033573220857;0;0;0;0;0
6.2814331830740073;0.0092387953251128786;0;0;0;0;0
6.2888057572325451;0.0088192126434835146;0;0;0;0;0
6.2961783313910828;0.0083146961230254317;0;0;0;0;0
6.3035509055496197;0.0077301045336273713;0;0;0;0;0
6.3109234797081575;0.0070710678118655048;0;0;0;0;0
6.3182960538666952;0.0063439328416364073;0;0;0;0;0
6.325668628025233;0.0055557023301960034;0;0;0;0;0
6.3330412021837708;0.0047139673682598656;0;0;0;0;0
6.3404137763423076;0.0038268343236509488;0;0;0;0;0
6.3477863505008454;0.0029028467725445779;0;0;0;0;0
6.3551589246593831;0.0019509032201612737;0;0;0;0;0
6.3625314988179209;0.00098017140329549417;0;0;0;0;0
6.3699040729764587;-7.3515946787036487e-17;0;0;0;0;0
6.3772766471349955;-0.00098017140329564054;0;0;0;0;0
6.3846492212935333;-0.0019509032201612787;0;0;0;0;0
6.3920217954520711;-0.0029028467725445823;0;0;0;0;0
6.3993943696106088;-0.0038268343236509536;0;0;0;0;0
6.4067669437691457;-0.0047139673682599957;0;0;0;0;0
6.4141395179276834;-0.0055557023301960077;0;0;0;0;0
6.4215120920862212;-0.0063439328416364116;0;0;0;0;0
6.428884666244759;-0.0070710678118655083;0;0;0;0;0
6.4362572404032967;-0.0077301045336273747;0;0;0;0;0
6.4436298145618336;-0.0083146961230254352;0;0;0;0;0
6.4510023887203713;-0.0088192126434835181;0;0;0;0;0
6.4583749628789091;-0.0092387953251128804;0;0;0;0;0
6.4657475370374469;-0.0095694033573220875;0;0;0;0;0
6.4731201111959846;-0.0098078528040323239;0;0;0;0;0
6.4804926853545215;-0.0099518472667219603;0;0;0;0;0
6.4878652595130593;-0.01;0;0;0;0;0
6.495237833671597;-0.0099518472667219707;0;0;0;0;0
6.5026104078301348;-0.0098078528040322875;0;0;0;0;0
6.5099829819886716;-0.009569403357322117;0;0;0;0;0
6.5173555561472094;-0.0092387953251128647;0;0;0;0;0
6.5247281303057472;-0.0088192126434835667;0;0;0;0;0
6.5321007044642849;-0.0083146961230254144;0;0;0;0;0
6.5394732786228227;-0.0077301045336273504;0;0;0;0;0
6.5468458527813596;-0.0070710678118654805;0;0;0;0;0
6.5542184269398973;-0.0063439328416364906;0;0;0;0;0
6.5615910010984351;-0.0055557023301959756;0;0;0;0;0
6.5689635752569728;-0.0047139673682599602;0;0;0;0;0
6.5763361494155097;-0.0038268343236509167;0;0;0;0;0
6.5837087235740475;-0.0029028467725446812;0;0;0;0;0
6.5910812977325852;-0.0019509032201612401;0;0;0;0;0
6.598453871891123;-0.00098017140329560151;0;0;0;0;0
6.6058264460496607;1.0781843677589415e-16;0;0;0;0;0
6.6131990202081976;0.0009801714032955332;0;0;0;0;0
6.6205715943667354;0.0019509032201613123;0;0;0;0;0
6.6279441685252731;0.0029028467725446152;0;0;0;0;0
6.6353167426838109;0.0038268343236509852;0;0;0;0;0
6.6426893168423486;0.0047139673682600252;0;0;0;0;0
6.6500618910008855;0.0055557023301960363;0;0;0;0;0
6.6574344651594233;0.0063439328416364385;0;0;0;0;0
6.664807039317961;0.0070710678118655326;0;0;0;0;0
6.6721796134764988;0.0077301045336273964;0;0;0;0;0
6.6795521876350357;0.0083146961230254543;0;0;0;0;0
6.6869247617935734;0.0088192126434835337;0;0;0;0;0
6.6942973359521112;0.0092387953251128925;0;0;0;0;0
6.7016699101106489;0.0095694033573220979;0;0;0;0;0
6.7090424842691867;0.0098078528040323309;0;0;0;0;0
6.7164150584277236;0.0099518472667219637;0;0;0;0;0
6.7237876325862613;0.01;0;0;0;0;0
6.7311602067447991;0.0099518472667219672;0;0;0;0;0
6.7385327809033368;0.0098078528040323083;0;0;0;0;0
6.7459053550618746;0.0095694033573220667;0;0;0;0;0
6.7532779292204115;0.0092387953251128526;0;0;0;0;0
6.7606505033789492;0.0088192126434835493;0;0;0;0;0
6.768023077537487;0.0083146961230254734;0;0;0;0;0
6.7753956516960248;0.0077301045336273279;0;0;0;0;0
6.7827682258545616;0.0070710678118654563;0;0;0;0;0
6.7901408000130994;0.0063439328416364637;0;0;0;0;0
6.7975133741716371;0.0055557023301960641;0;0;0;0;0
6.8048859483301749;0.0047139673682599307;0;0;0;0;0
6.8122585224887127;0.0038268343236508851;0;0;0;0;0
6.8196310966472495;0.0029028467725446478;0;0;0;0;0
6.8270036708057873;0.0019509032201613459;0;0;0;0;0
6.8343762449643251;0.00098017140329556725;0;0;0;0;0
6.8417488191228628;-1.2379612731767154e-20;0;0;0;0;0
6.8491213932814006;-0.00098017140329570884;0;0;0;0;0
6.8564939674399374;-0.0019509032201612065;0;0;0;0;0
6.8638665415984752;-0.0029028467725446482;0;0;0;0;0
6.871239115757013;-0.0038268343236508851;0;0;0;0;0
6.8786116899155507;-0.0047139673682600556;0;0;0;0;0
6.8859842640740876;-0.0055557023301959461;0;0;0;0;0
6.8933568382326253;-0.0063439328416364637;0;0;0;0;0
6.9007294123911631;-0.0070710678118654563;0;0;0;0;0
6.9081019865497009;-0.0077301045336274181;0;0;0;0;0
6.9154745607082386;-0.0083146961230254734;0;0;0;0;0
6.9228471348667755;-0.0088192126434835493;0;0;0;0;0
6.9302197090253133;-0.0092387953251128526;0;0;0;0;0
6.937592283183851;-0.0095694033573221066;0;0;0;0;0
6.9449648573423888;-0.0098078528040323083;0;0;0;0;0
6.9523374315009256;-0.0099518472667219672;0;0;0;0;0
6.9597100056594634;-0.01;0;0;0;0;0
6.9670825798180012;-0.0099518472667219637;0;0;0;0;0
6.9744551539765389;-0.0098078528040323031;0;0;0;0;0
6.9818277281350767;-0.0095694033573220563;0;0;0;0;0
6.9892003022936136;-0.0092387953251128925;0;0;0;0;0
6.9965728764521513;-0.0088192126434835337;0;0;0;0;0
7.0039454506106891;-0.0083146961230254543;0;0;0;0;0
7.0113180247692268;-0.0077301045336273053;0;0;0;0;0
7.0186905989277646;-0.0070710678118654328;0;0;0;0;0
7.0260631730863015;-0.0063439328416364385;0;0;0;0;0
7.0334357472448392;-0.0055557023301960363;0;0;0;0;0
7.040808321403377;-0.0047139673682599003;0;0;0;0;0
7.0481808955619147;-0.0038268343236508534;0;0;0;0;0
7.0555534697204516;-0.0029028467725446152;0;0;0;0;0
7.0629260438789894;-0.0019509032201613123;0;0;0;0;0
7.0702986180375271;-0.0009801714032955332;0;0;0;0;0
7.0776711921960649;3.4314869601589425e-17;0;0;0;0;0
7.0850437663546026;0.00098017140329560151;0;0;0;0;0
7.0924163405131395;0.0019509032201612401;0;0;0;0;0
7.0997889146716773;0.0029028467725446812;0;0;0;0;0
7.107161488830215;0.0038268343236509171;0;0;0;0;0
7.1145340629887528;0.0047139673682599602;0;0;0;0;0
7.1219066371472906;0.0055557023301960927;0;0;0;0;0
7.1292792113058274;0.0063439328416364906;0;0;0;0;0
7.1366517854643652;0.0070710678118654805;0;0;0;0;0
7.1440243596229029;0.0077301045336273504;0;0;0;0;0
7.1513969337814407;0.0083146961230254925;0;0;0;0;0
7.1587695079399776;0.0088192126434835667;0;0;0;0;0
7.1661420820985153;0.0092387953251128647;0;0;0;0;0
7.1735146562570531;0.0095694033573220771;0;0;0;0;0
7.1808872304155908;0.0098078528040323153;0;0;0;0;0
7.1882598045741286;0.0099518472667219707;0;0;0;0;0
7.1956323787326655;0.01;0;0;0;0;0
7.2030049528912032;0.0099518472667219759;0;0;0;0;0
7.210377527049741;0.0098078528040322962;0;0;0;0;0
7.2177501012082788;0.0095694033573220875;0;0;0;0;0
7.2251226753668156;0.0092387953251128804;0;0;0;0;0
7.2324952495253534;0.008819212643483584;0;0;0;0;0
7.2398678236838911;0.0083146961230254352;0;0;0;0;0
7.2472403978424289;0.0077301045336273747;0;0;0;0;0
7.2546129720009667;0.0070710678118654086;0;0;0;0;0
7.2619855461595035;0.0063439328416365218;0;0;0;0;0
7.2693581203180413;0.0055557023301960077;0;0;0;0;0
7.2767306944765791;0.0047139673682599957;0;0;0;0;0
7.2841032686351168;0.0038268343236508217;0;0;0;0;0
7.2914758427936546;0.0029028467725445823;0;0;0;0;0
7.2988484169521914;0.0019509032201612787;0;0;0;0;0
7.3062209911107292;0.00098017140329564054;0;0;0;0;0
7.313593565269267;-6.8617359590447072e-17;0;0;0;0;0
7.3209661394278047;-0.00098017140329563555;0;0;0;0;0
7.3283387135863416;-0.0019509032201612737;0;0;0;0;0
7.3357112877448793;-0.0029028467725445779;0;0;0;0;0
7.3430838619034171;-0.0038268343236509488;0;0;0;0;0
7.3504564360619549;-0.0047139673682599905;0;0;0;0;0
7.3578290102204926;-0.0055557023301961222;0;0;0;0;0
7.3652015843790295;-0.0063439328416364073;0;0;0;0;0
7.3725741585375673;-0.0070710678118655048;0;0;0;0;0
7.379946732696105;-0.0077301045336273713;0;0;0;0;0
7.3873193068546428;-0.0083146961230255115;0;0;0;0;0
7.3946918810131805;-0.0088192126434835823;0;0;0;0;0
7.4020644551717174;-0.0092387953251128786;0;0;0;0;0
7.4094370293302552;-0.0095694033573220857;0;0;0;0;0
7.4168096034887929;-0.0098078528040323222;0;0;0;0;0
7.4241821776473307;-0.0099518472667219741;0;0;0;0;0
7.4315547518058676;-0.01;0;0;0;0;0
7.4389273259644053;-0.0099518472667219724;0;0;0;0;0
7.4462999001229431;-0.0098078528040322892;0;0;0;0;0
7.4536724742814808;-0.0095694033573220771;0;0;0;0;0
7.4610450484400186;-0.0092387953251128682;0;0;0;0;0
7.4684176225985555;-0.0088192126434835684;0;0;0;0;0
7.4757901967570932;-0.0083146961230254161;0;0;0;0;0
7.483162770915631;-0.0077301045336273522;0;0;0;0;0
7.4905353450741687;-0.007071067811865484;0;0;0;0;0
7.4979079192327065;-0.0063439328416363848;0;0;0;0;0
7.5052804933912434;-0.0055557023301959782;0;0;0;0;0
7.5126530675497811;-0.0047139673682599645;0;0;0;0;0
7.5200256417083189;-0.0038268343236509219;0;0;0;0;0
7.5273982158668566;-0.0029028467725445493;0;0;0;0;0
7.5347707900253935;-0.0019509032201613841;0;0;0;0;0
7.5421433641839313;-0.00098017140329560628;0;0;0;0;0
7.549515938342469;-3.9188697572715302e-17;0;0;0;0;0
7.5568885125010068;0.00098017140329566981;0;0;0;0;0
7.5642610866595446;0.0019509032201613075;0;0;0;0;0
7.5716336608180814;0.0029028467725446105;0;0;0;0;0
7.5790062349766192;0.0038268343236508491;0;0;0;0;0
7.5863788091351569;0.0047139673682600209;0;0;0;0;0
7.5937513832936947;0.005555702330196032;0;0;0;0;0
7.6011239574522316;0.0063439328416364342;0;0;0;0;0
7.6084965316107693;0.0070710678118654285;0;0;0;0;0
7.6158691057693071;0.0077301045336273938;0;0;0;0;0
7.6232416799278448;0.0083146961230254508;0;0;0;0;0
7.6306142540863826;0.0088192126434835979;0;0;0;0;0
7.6379868282449195;0.009238795325112837;0;0;0;0;0
7.6453594024034572;0.0095694033573220962;0;0;0;0;0
7.652731976561995;0.0098078528040323014;0;0;0;0;0
7.6601045507205328;0.0099518472667219776;0;0;0;0;0
7.6674771248790705;0.01;0;0;0;0;0
7.6748496990376074;0.0099518472667219689;0;0;0;0;0
7.6822222731961451;0.0098078528040323101;0;0;0;0;0
7.6895948473546829;0.0095694033573220667;0;0;0;0;0
7.6969674215132207;0.0092387953251128543;0;0;0;0;0
7.7043399956717575;0.0088192126434835511;0;0;0;0;0
7.7117125698302953;0.0083146961230254751;0;0;0;0;0
7.7190851439888331;0.0077301045336273314;0;0;0;0;0
7.7264577181473708;0.0070710678118654606;0;0;0;0;0
7.7338302923059086;0.0063439328416363587;0;0;0;0;0
7.7412028664644454;0.0055557023301960684;0;0;0;0;0
7.7485754406229832;0.004713967368259935;0;0;0;0;0
7.755948014781521;0.0038268343236508903;0;0;0;0;0
7.7633205889400587;0.0029028467725445168;0;0;0;0;0
7.7706931630985965;0.0019509032201612112;0;0;0;0;0
7.7780657372571333;0.00098017140329557224;0;0;0;0;0
7.7854383114156711;4.8862075838576457e-18;0;0;0;0;0
7.7928108855742089;-0.00098017140329570386;0;0;0;0;0
7.8001834597327466;-0.0019509032201613411;0;0;0;0;0
7.8075560338912835;-0.0029028467725446434;0;0;0;0;0
7.8149286080498213;-0.0038268343236508807;0;0;0;0;0
7.822301182208359;-0.0047139673682600513;0;0;0;0;0
7.8296737563668968;-0.0055557023301960606;0;0;0;0;0
7.8370463305254345;-0.0063439328416364602;0;0;0;0;0
7.8444189046839714;-0.0070710678118654528;0;0;0;0;0
7.8517914788425092;-0.0077301045336273244;0;0;0;0;0
7.8591640530010469;-0.0083146961230254699;0;0;0;0;0
7.8665366271595847;-0.0088192126434835476;0;0;0;0;0
7.8739092013181224;-0.0092387953251129046;0;0;0;0;0
7.8812817754766593;-0.0095694033573220632;0;0;0;0;0
7.8886543496351971;-0.0098078528040323083;0;0;0;0;0
7.8960269237937348;-0.0099518472667219672;0;0;0;0;0
7.9033994979522726;-0.01;0;0;0;0;0
7.9107720721108095;-0.0099518472667219776;0;0;0;0;0
7.9181446462693472;-0.0098078528040323031;0;0;0;0;0
7.925517220427885;-0.0095694033573220979;0;0;0;0;0
7.9328897945864227;-0.0092387953251128405;0;0;0;0;0
7.9402623687449605;-0.0088192126434835354;0;0;0;0;0
7.9476349429034974;-0.0083146961230254578;0;0;0;0;0
7.9550075170620351;-0.007730104533627399;0;0;0;0;0
7.9623800912205729;-0.0070710678118654363;0;0;0;0;0
7.9697526653791106;-0.006343932841636442;0;0;0;0;0
7.9771252395376475;-0.0055557023301960398;0;0;0;0;0
7.9844978136961853;-0.0047139673682600296;0;0;0;0;0
7.991870387854723;-0.0038268343236508577;0;0;0;0;0
7.9992429620132608;-0.00290284677254462;0;0;0;0;0
8.0066155361717986;-0.0019509032201611776;0;0;0;0;0
8.0139881103303363;-0.00098017140329553797;0;0;0;0;0
8.0213606844888741;1.7152482955702006e-16;0;0;0;0;0
8.0287332586474101;0.00098017140329545514;0;0;0;0;0
8.0361058328059478;0.0019509032201612353;0;0;0;0;0
8.0434784069644856;0.0029028467725445402;0;0;0;0;0
8.0508509811230233;0.0038268343236509124;0;0;0;0;0
8.0582235552815611;0.0047139673682599567;0;0;0;0;0
8.0655961294400988;0.0055557023301960893;0;0;0;0;0
8.0729687035986366;0.0063439328416364871;0;0;0;0;0
8.0803412777571744;0.0070710678118655777;0;0;0;0;0
8.0877138519157121;0.0077301045336274363;0;0;0;0;0
8.0950864260742499;0.008314696123025489;0;0;0;0;0
8.1024590002327859;0.0088192126434834955;0;0;0;0;0
8.1098315743913236;0.009238795325112863;0;0;0;0;0
8.1172041485498614;0.0095694033573220736;0;0;0;0;0
8.1245767227083991;0.0098078528040323153;0;0;0;0;0
8.1319492968669369;0.0099518472667219707;0;0;0;0;0
8.1393218710254747;0.01;0;0;0;0;0
8.1466944451840124;0.009951847266721962;0;0;0;0;0
8.1540670193425502;0.0098078528040322962;0;0;0;0;0
8.1614395935010879;0.0095694033573220476;0;0;0;0;0
8.1688121676596239;0.0092387953251128821;0;0;0;0;0
8.1761847418181617;0.0088192126434835857;0;0;0;0;0
8.1835573159766994;0.0083146961230254387;0;0;0;0;0
8.1909298901352372;0.0077301045336273782;0;0;0;0;0
8.198302464293775;0.0070710678118655118;0;0;0;0;0
8.2056750384523127;0.0063439328416364151;0;0;0;0;0
8.2130476126108505;0.0055557023301960121;0;0;0;0;0
8.2204201867693882;0.0047139673682598743;0;0;0;0;0
8.227792760927926;0.0038268343236508265;0;0;0;0;0
8.235165335086462;0.0029028467725447232;0;0;0;0;0
8.2425379092449997;0.0019509032201612834;0;0;0;0;0
8.2499104834035375;0.00098017140329564531;0;0;0;0;0
8.2572830575620753;7.838977475816237e-17;0;0;0;0;0
8.264655631720613;-0.00098017140329563078;0;0;0;0;0
8.2720282058791508;-0.0019509032201612689;0;0;0;0;0
8.2794007800376885;-0.0029028467725447089;0;0;0;0;0
8.2867733541962263;-0.003826834323650944;0;0;0;0;0
8.2941459283547641;-0.004713967368260112;0;0;0;0;0
8.3015185025133;-0.0055557023301958811;0;0;0;0;0
8.3088910766718378;-0.0063439328416364038;0;0;0;0;0
8.3162636508303756;-0.0070710678118654008;0;0;0;0;0
8.3236362249889133;-0.0077301045336273678;0;0;0;0;0
8.3310087991474511;-0.00831469612302543;0;0;0;0;0
8.3383813733059888;-0.0088192126434835788;0;0;0;0;0
8.3457539474645266;-0.0092387953251128769;0;0;0;0;0
8.3531265216230643;-0.0095694033573221256;0;0;0;0;0
8.3604990957816021;-0.0098078528040323222;0;0;0;0;0
8.3678716699401399;-0.009951847266721988;0;0;0;0;0
8.3752442440986758;-0.01;0;0;0;0;0
8.3826168182572136;-0.0099518472667219724;0;0;0;0;0
8.3899893924157514;-0.009807852804032317;0;0;0;0;0
8.3973619665742891;-0.0095694033573220788;0;0;0;0;0
8.4047345407328269;-0.0092387953251128682;0;0;0;0;0
8.4121071148913646;-0.0088192126434835042;0;0;0;0;0
8.4194796890499024;-0.0083146961230254196;0;0;0;0;0
8.4268522632084402;-0.0077301045336272654;0;0;0;0;0
8.4342248373669779;-0.0070710678118653869;0;0;0;0;0
8.4415974115255139;-0.0063439328416364984;0;0;0;0;0
8.4489699856840517;-0.0055557023301961014;0;0;0;0;0
8.4563425598425894;-0.0047139673682599697;0;0;0;0;0
8.4637151340011272;-0.0038268343236509262;0;0;0;0;0
8.4710877081596649;-0.0029028467725445545;0;0;0;0;0
8.4784602823182027;-0.0019509032201612498;0;0;0;0;0
8.4858328564767405;-0.00098017140329546967;0;0;0;0;0
8.4932054306352782;9.8021262382715324e-17;0;0;0;0;0
8.500578004793816;0.00098017140329566483;0;0;0;0;0
8.507950578952352;0.0019509032201611631;0;0;0;0;0
8.5153231531108897;0.0029028467725446057;0;0;0;0;0
8.5226957272694275;0.0038268343236508447;0;0;0;0;0
8.5300683014279652;0.0047139673682600174;0;0;0;0;0
8.537440875586503;0.0055557023301960277;0;0;0;0;0
8.5448134497450408;0.0063439328416364307;0;0;0;0;0
8.5521860239035785;0.0070710678118655257;0;0;0;0;0
8.5595585980621163;0.0077301045336273903;0;0;0;0;0
8.566931172220654;0.0083146961230255272;0;0;0;0;0
8.5743037463791918;0.0088192126434835962;0;0;0;0;0
8.5816763205377278;0.0092387953251128353;0;0;0;0;0
8.5890488946962655;0.0095694033573220944;0;0;0;0;0
8.5964214688548033;0.0098078528040323014;0;0;0;0;0
8.6037940430133411;0.009951847266721962;0;0;0;0;0
8.6111666171718788;0.01;0;0;0;0;0
8.6185391913304166;0.0099518472667219689;0;0;0;0;0
8.6259117654889543;0.009807852804032284;0;0;0;0;0
8.6332843396474921;0.0095694033573220684;0;0;0;0;0
8.6406569138060298;0.0092387953251128023;0;0;0;0;0
8.6480294879645658;0.0088192126434836222;0;0;0;0;0
8.6554020621231036;0.0083146961230254786;0;0;0;0;0
8.6627746362816413;0.0077301045336274242;0;0;0;0;0
8.6701472104401791;0.0070710678118654641;0;0;0;0;0
8.6775197845987169;0.0063439328416364715;0;0;0;0;0
8.6848923587572546;0.0055557023301959539;0;0;0;0;0
8.6922649329157924;0.0047139673682599385;0;0;0;0;0
8.6996375070743301;0.0038268343236507632;0;0;0;0;0
8.7070100812328679;0.0029028467725445211;0;0;0;0;0
8.7143826553914039;0.0019509032201613554;0;0;0;0;0
8.7217552295499416;0.00098017140329571839;0;0;0;0;0
8.7291278037084794;9.7847947804470584e-18;0;0;0;0;0
8.7365003778670172;-0.00098017140329555771;0;0;0;0;0
8.7438729520255549;-0.0019509032201613361;0;0;0;0;0
8.7512455261840927;-0.0029028467725446391;0;0;0;0;0
8.7586181003426304;-0.0038268343236510078;0;0;0;0;0
8.7659906745011682;-0.0047139673682600469;0;0;0;0;0
8.773363248659706;-0.0055557023301961751;0;0;0;0;0
8.7807358228182419;-0.0063439328416363475;0;0;0;0;0
8.7881083969767797;-0.0070710678118654493;0;0;0;0;0
8.7954809711353175;-0.0077301045336273209;0;0;0;0;0
8.8028535452938552;-0.0083146961230254682;0;0;0;0;0
8.810226119452393;-0.0088192126434835458;0;0;0;0;0
8.8175986936109307;-0.0092387953251129029;0;0;0;0;0
8.8249712677694685;-0.0095694033573221048;0;0;0;0;0
8.8323438419280063;-0.0098078528040323083;0;0;0;0;0
8.839716416086544;-0.0099518472667219811;0;0;0;0;0
8.8470889902450818;-0.01;0;0;0;0;0
8.8544615644036178;-0.0099518472667219793;0;0;0;0;0
8.8618341385621555;-0.0098078528040323049;0;0;0;0;0
8.8692067127206933;-0.0095694033573220996;0;0;0;0;0
8.876579286879231;-0.0092387953251128439;0;0;0;0;0
8.8839518610377688;-0.0088192126434835389;0;0;0;0;0
8.8913244351963066;-0.0083146961230254595;0;0;0;0;0
8.8986970093548443;-0.0077301045336273123;0;0;0;0;0
8.9060695835133821;-0.0070710678118654389;0;0;0;0;0
8.9134421576719198;-0.0063439328416363353;0;0;0;0;0
8.9208147318304558;-0.0055557023301960442;0;0;0;0;0
8.9281873059889936;-0.0047139673682600339;0;0;0;0;0
8.9355598801475313;-0.0038268343236508629;0;0;0;0;0
8.9429324543060691;-0.0029028467725446244;0;0;0;0;0
8.9503050284646068;-0.0019509032201613216;0;0;0;0;0
8.9576776026231446;-0.00098017140329554296;0;0;0;0;0
8.9650501767816824;2.45176952084106e-17;0;0;0;0;0
8.9724227509402201;0.00098017140329573313;0;0;0;0;0
8.9797953250987579;0.00195090322016137;0;0;0;0;0
8.9871678992572939;0.0029028467725445354;0;0;0;0;0
8.9945404734158316;0.0038268343236507771;0;0;0;0;0
9.0019130475743694;0.0047139673682599524;0;0;0;0;0
9.0092856217329071;0.0055557023301959661;0;0;0;0;0
9.0166581958914449;0.0063439328416364828;0;0;0;0;0
9.0240307700499827;0.0070710678118654736;0;0;0;0;0
9.0314033442085204;0.0077301045336274337;0;0;0;0;0
9.0387759183670582;0.0083146961230254873;0;0;0;0;0
9.0461484925255959;0.0088192126434836291;0;0;0;0;0
9.0535210666841319;0.0092387953251128075;0;0;0;0;0
9.0608936408426697;0.0095694033573220736;0;0;0;0;0
9.0682662150012074;0.0098078528040322875;0;0;0;0;0
9.0756387891597452;0.0099518472667219689;0;0;0;0;0
9.083011363318283;0.01;0;0;0;0;0
9.0903839374768207;0.009951847266721962;0;0;0;0;0
9.0977565116353585;0.0098078528040322979;0;0;0;0;0
9.1051290857938962;0.0095694033573220493;0;0;0;0;0
9.112501659952434;0.0092387953251128301;0;0;0;0;0
9.1198742341109718;0.0088192126434834556;0;0;0;0;0
9.1272468082695077;0.0083146961230255185;0;0;0;0;0
9.1346193824280455;0.0077301045336273808;0;0;0;0;0
9.1419919565865833;0.0070710678118655144;0;0;0;0;0
9.149364530745121;0.0063439328416364186;0;0;0;0;0
9.1567371049036588;0.0055557023301960155;0;0;0;0;0
9.1641096790621965;0.0047139673682598787;0;0;0;0;0
9.1714822532207343;0.0038268343236508308;0;0;0;0;0
9.1788548273792721;0.0029028467725445918;0;0;0;0;0
9.1862274015378098;0.0019509032201611488;0;0;0;0;0
9.1935999756963458;0.00098017140329565008;0;0;0;0;0
9.2009725498548836;8.3288361954751784e-17;0;0;0;0;0
9.2083451240134213;-0.00098017140329562579;0;0;0;0;0
9.2157176981719591;-0.0019509032201612641;0;0;0;0;0
9.2230902723304968;-0.0029028467725447046;0;0;0;0;0
9.2304628464890346;-0.0038268343236509397;0;0;0;0;0
9.2378354206475723;-0.0047139673682599819;0;0;0;0;0
9.2452079948061101;-0.0055557023301961144;0;0;0;0;0
9.2525805689646479;-0.0063439328416365097;0;0;0;0;0
9.2599531431231838;-0.0070710678118653973;0;0;0;0;0
9.2673257172817216;-0.007730104533627366;0;0;0;0;0
9.2746982914402594;-0.0083146961230254265;0;0;0;0;0
9.2820708655987971;-0.0088192126434835771;0;0;0;0;0
9.2894434397573349;-0.0092387953251128734;0;0;0;0;0
9.2968160139158726;-0.0095694033573220823;0;0;0;0;0
9.3041885880744104;-0.0098078528040323205;0;0;0;0;0
9.3115611622329482;-0.0099518472667219724;0;0;0;0;0
9.3189337363914859;-0.01;0;0;0;0;0
9.3263063105500219;-0.0099518472667219724;0;0;0;0;0
9.3336788847085597;-0.0098078528040323187;0;0;0;0;0
9.3410514588670974;-0.0095694033573221222;0;0;0;0;0
9.3484240330256352;-0.0092387953251128717;0;0;0;0;0
9.3557966071841729;-0.0088192126434835736;0;0;0;0;0
9.3631691813427107;-0.0083146961230254213;0;0;0;0;0
9.3705417555012485;-0.0077301045336273591;0;0;0;0;0
9.3779143296597862;-0.0070710678118653903;0;0;0;0;0
9.385286903818324;-0.0063439328416363926;0;0;0;0;0
9.3926594779768617;-0.0055557023301958689;0;0;0;0;0
9.4000320521353977;-0.004713967368260099;0;0;0;0;0
9.4074046262939355;-0.0038268343236509306;0;0;0;0;0
9.4147772004524732;-0.002902846772544695;0;0;0;0;0
9.422149774611011;-0.0019509032201612544;0;0;0;0;0
9.4295223487695488;-0.00098017140329561604;0;0;0;0;0
9.4368949229280865;9.3122675186125922e-17;0;0;0;0;0
9.4442674970866243;0.00098017140329566006;0;0;0;0;0
9.451640071245162;0.0019509032201614372;0;0;0;0;0
9.4590126454036998;0.0029028467725447371;0;0;0;0;0
9.4663852195622358;0.0038268343236508404;0;0;0;0;0
9.4737577937207735;0.0047139673682598873;0;0;0;0;0
9.4811303678793113;0.0055557023301960242;0;0;0;0;0
9.4885029420378491;0.0063439328416364264;0;0;0;0;0
9.4958755161963868;0.0070710678118655222;0;0;0;0;0
9.5032480903549246;0.0077301045336273869;0;0;0;0;0
9.5106206645134623;0.0083146961230255254;0;0;0;0;0
9.5179932386720001;0.0088192126434835944;0;0;0;0;0
