#Time;LinearAccX;LinearAccY;LinearAccZ;AngularAccX;AngularAccY;AngularAccZ
0;0;0;0;0;0;0
0.0070100447290032397;0.00098017140329560606;0;0;0;0;0
0.014020089458006479;0.0019509032201612826;0;0;0;0;0
0.021030134187009719;0.0029028467725446235;0;0;0;0;0
0.028040178916012959;0.0038268343236508981;0;0;0;0;0
0.035050223645016199;0.0047139673682599767;0;0;0;0;0
0.042060268374019438;0.0055557023301960216;0;0;0;0;0
0.049070313103022678;0.006343932841636455;0;0;0;0;0
0.056080357832025918;0.0070710678118654745;0;0;0;0;0
0.063090402561029157;0.0077301045336273704;0;0;0;0;0
0.070100447290032397;0.0083146961230254526;0;0;0;0;0
0.077110492019035637;0.0088192126434835511;0;0;0;0;0
0.084120536748038877;0.0092387953251128682;0;0;0;0;0
0.091130581477042116;0.0095694033573220892;0;0;0;0;0
0.098140626206045356;0.0098078528040323049;0;0;0;0;0
0.1051506709350486;0.0099518472667219689;0;0;0;0;0
0.11216071566405184;0.01;0;0;0;0;0
0.11917076039305508;0.0099518472667219689;0;0;0;0;0
0.12618080512205831;0.0098078528040323049;0;0;0;0;0
0.13319084985106155;0.0095694033573220892;0;0;0;0;0
0.14020089458006479;0.0092387953251128682;0;0;0;0;0
0.14721093930906803;0.0088192126434835511;0;0;0;0;0
0.15422098403807127;0.0083146961230254508;0;0;0;0;0
0.16123102876707451;0.0077301045336273713;0;0;0;0;0
0.16824107349607775;0.0070710678118654762;0;0;0;0;0
0.17525111822508099;0.006343932841636455;0;0;0;0;0
0.18226116295408423;0.0055557023301960216;0;0;0;0;0
0.18927120768308747;0.0047139673682599784;0;0;0;0;0
0.19628125241209071;0.0038268343236508989;0;0;0;0;0
0.20329129714109395;0.0029028467725446239;0;0;0;0;0
0.21030134187009719;0.0019509032201612817;0;0;0;0;0
0.21731138659910043;0.00098017140329560823;0;0;0;0;0
0.22432143132810367;1.2246467991473532e-18;0;0;0;0;0
0.23133147605710691;-0.00098017140329560585;0;0;0;0;0
0.23834152078611015;-0.0019509032201612837;0;0;0;0;0
0.24535156551511339;-0.0029028467725446213;0;0;0;0;0
0.25236161024411663;-0.0038268343236508968;0;0;0;0;0
0.25937165497311987;-0.0047139673682599767;0;0;0;0;0
0.26638169970212311;-0.0055557023301960233;0;0;0;0;0
0.27339174443112635;-0.0063439328416364524;0;0;0;0;0
0.28040178916012959;-0.0070710678118654745;0;0;0;0;0
0.28741183388913283;-0.0077301045336273669;0;0;0;0;0
0.29442187861813607;-0.0083146961230254526;0;0;0;0;0
0.30143192334713931;-0.0088192126434835493;0;0;0;0;0
0.30844196807614255;-0.0092387953251128682;0;0;0;0;0
0.31545201280514579;-0.0095694033573220892;0;0;0;0;0
0.32246205753414903;-0.0098078528040323031;0;0;0;0;0
0.32947210226315227;-0.0099518472667219689;0;0;0;0;0
0.33648214699215551;-0.01;0;0;0;0;0
0.34349219172115875;-0.0099518472667219689;0;0;0;0;0
0.35050223645016199;-0.0098078528040323049;0;0;0;0;0
0.35751228117916523;-0.0095694033573220892;0;0;0;0;0
0.36452232590816847;-0.0092387953251128665;0;0;0;0;0
0.3715323706371717;-0.0088192126434835511;0;0;0;0;0
0.37854241536617494;-0.0083146961230254543;0;0;0;0;0
0.38555246009517818;-0.0077301045336273687;0;0;0;0;0
0.39256250482418142;-0.0070710678118654771;0;0;0;0;0
0.39957254955318466;-0.0063439328416364594;0;0;0;0;0
0.4065825942821879;-0.0055557023301960216;0;0;0;0;0
0.41359263901119114;-0.0047139673682599793;0;0;0;0;0
0.42060268374019438;-0.0038268343236508959;0;0;0;0;0
0.42761272846919762;-0.0029028467725446252;0;0;0;0;0
0.43462277319820086;-0.0019509032201612873;0;0;0;0;0
0.4416328179272041;-0.00098017140329560498;0;0;0;0;0
0.44864286265620734;-2.4492935982947064e-18;0;0;0;0;0
0.45565290738521058;0.00098017140329560021;0;0;0;0;0
0.46266295211421382;0.0019509032201612826;0;0;0;0;0
0.46967299684321706;0.00290284677254462;0;0;0;0;0
0.4766830415722203;0.0038268343236508994;0;0;0;0;0
0.48369308630122354;0.0047139673682599758;0;0;0;0;0
0.49070313103022678;0.0055557023301960181;0;0;0;0;0
0.49771317575923002;0.0063439328416364559;0;0;0;0;0
0.50472322048823326;0.0070710678118654736;0;0;0;0;0
0.5117332652172365;0.007730104533627366;0;0;0;0;0
0.51874330994623974;0.0083146961230254526;0;0;0;0;0
0.52575335467524298;0.0088192126434835493;0;0;0;0;0
0.53276339940424622;0.0092387953251128682;0;0;0;0;0
0.53977344413324946;0.0095694033573220892;0;0;0;0;0
0.5467834888622527;0.0098078528040323031;0;0;0;0;0
0.55379353359125594;0.0099518472667219689;0;0;0;0;0
0.56080357832025918;0.01;0;0;0;0;0
0.56781362304926242;0.0099518472667219689;0;0;0;0;0
0.57482366777826566;0.0098078528040323066;0;0;0;0;0
0.5818337125072689;0.0095694033573220875;0;0;0;0;0
0.58884375723627214;0.0092387953251128682;0;0;0;0;0
0.59585380196527538;0.0088192126434835511;0;0;0;0;0
0.60286384669427862;0.008314696123025456;0;0;0;0;0
0.60987389142328186;0.0077301045336273756;0;0;0;0;0
0.6168839361522851;0.007071067811865471;0;0;0;0;0
0.62389398088128833;0.0063439328416364541;0;0;0;0;0
0.63090402561029157;0.0055557023301960233;0;0;0;0;0
0.63791407033929481;0.0047139673682599801;0;0;0;0;0
0.64492411506829805;0.003826834323650905;0;0;0;0;0
0.65193415979730129;0.0029028467725446343;0;0;0;0;0
0.65894420452630453;0.0019509032201612798;0;0;0;0;0
0.66595424925530777;0.00098017140329560628;0;0;0;0;0
0.67296429398431101;3.6739403974420592e-18;0;0;0;0;0
0.67997433871331425;-0.00098017140329559891;0;0;0;0;0
0.68698438344231749;-0.0019509032201612726;0;0;0;0;0
0.69399442817132073;-0.0029028467725446278;0;0;0;0;0
0.70100447290032397;-0.0038268343236508985;0;0;0;0;0
0.70801451762932721;-0.0047139673682599741;0;0;0;0;0
0.71502456235833045;-0.0055557023301960173;0;0;0;0;0
0.72203460708733369;-0.0063439328416364472;0;0;0;0;0
0.72904465181633693;-0.0070710678118654788;0;0;0;0;0
0.73605469654534017;-0.0077301045336273713;0;0;0;0;0
0.74306474127434341;-0.0083146961230254508;0;0;0;0;0
0.75007478600334665;-0.0088192126434835493;0;0;0;0;0
0.75708483073234989;-0.0092387953251128647;0;0;0;0;0
0.76409487546135313;-0.0095694033573220857;0;0;0;0;0
0.77110492019035637;-0.0098078528040323049;0;0;0;0;0
0.77811496491935961;-0.0099518472667219689;0;0;0;0;0
0.78512500964836285;-0.01;0;0;0;0;0
0.79213505437736609;-0.0099518472667219689;0;0;0;0;0
0.79914509910636933;-0.0098078528040323066;0;0;0;0;0
0.80615514383537257;-0.0095694033573220875;0;0;0;0;0
0.81316518856437581;-0.0092387953251128682;0;0;0;0;0
0.82017523329337905;-0.0088192126434835511;0;0;0;0;0
0.82718527802238229;-0.008314696123025456;0;0;0;0;0
0.83419532275138553;-0.0077301045336273756;0;0;0;0;0
0.84120536748038877;-0.0070710678118654727;0;0;0;0;0
0.84821541220939201;-0.0063439328416364541;0;0;0;0;0
0.85522545693839525;-0.0055557023301960242;0;0;0;0;0
0.86223550166739849;-0.0047139673682599819;0;0;0;0;0
0.86924554639640172;-0.0038268343236509063;0;0;0;0;0
0.87625559112540496;-0.0029028467725446356;0;0;0;0;0
0.8832656358544082;-0.0019509032201612808;0;0;0;0;0
0.89027568058341144;-0.00098017140329560758;0;0;0;0;0
0.89728572531241468;-4.8985871965894128e-18;0;0;0;0;0
0.90429577004141792;0.00098017140329559782;0;0;0;0;0
0.91130581477042116;0.0019509032201612715;0;0;0;0;0
0.9183158594994244;0.0029028467725446261;0;0;0;0;0
0.92532590422842764;0.0038268343236508972;0;0;0;0;0
0.93233594895743088;0.0047139673682599732;0;0;0;0;0
0.93934599368643412;0.0055557023301960164;0;0;0;0;0
0.94635603841543736;0.0063439328416364472;0;0;0;0;0
0.9533660831444406;0.0070710678118654779;0;0;0;0;0
0.96037612787344384;0.0077301045336273704;0;0;0;0;0
0.96738617260244708;0.0083146961230254508;0;0;0;0;0
0.97439621733145032;0.0088192126434835476;0;0;0;0;0
0.98140626206045356;0.0092387953251128647;0;0;0;0;0
0.9884163067894568;0.0095694033573220857;0;0;0;0;0
0.99542635151846004;0.0098078528040323049;0;0;0;0;0
1.0024363962474632;0.0099518472667219672;0;0;0;0;0
1.0094464409764665;0.01;0;0;0;0;0
1.0164564857054699;0.0099518472667219689;0;0;0;0;0
1.023466530434473;0.0098078528040323066;0;0;0;0;0
1.0304765751634761;0.0095694033573220927;0;0;0;0;0
1.0374866198924795;0.0092387953251128682;0;0;0;0;0
1.0444966646214828;0.0088192126434835441;0;0;0;0;0
1.051506709350486;0.0083146961230254578;0;0;0;0;0
1.0585167540794891;0.0077301045336273877;0;0;0;0;0
1.0655267988084924;0.0070710678118654736;0;0;0;0;0
1.0725368435374958;0.006343932841636442;0;0;0;0;0
1.0795468882664989;0.0055557023301960251;0;0;0;0;0
1.086556932995502;0.0047139673682599983;0;0;0;0;0
1.0935669777245054;0.0038268343236509072;0;0;0;0;0
1.1005770224535087;0.00290284677254462;0;0;0;0;0
1.1075870671825119;0.0019509032201612821;0;0;0;0;0
1.114597111911515;0.00098017140329562645;0;0;0;0;0
1.1216071566405184;6.1232339957367663e-18;0;0;0;0;0
1.1286172013695217;-0.0009801714032956143;0;0;0;0;0
1.1356272460985248;-0.00195090322016127;0;0;0;0;0
1.142637290827528;-0.0029028467725446083;0;0;0;0;0
1.1496473355565313;-0.0038268343236508794;0;0;0;0;0
1.1566573802855347;-0.0047139673682599879;0;0;0;0;0
1.1636674250145378;-0.0055557023301960294;0;0;0;0;0
1.1706774697435409;-0.0063439328416364316;0;0;0;0;0
1.1776875144725443;-0.0070710678118654771;0;0;0;0;0
1.1846975592015476;-0.0077301045336273687;0;0;0;0;0
1.1917076039305508;-0.0083146961230254508;0;0;0;0;0
1.1987176486595539;-0.0088192126434835476;0;0;0;0;0
1.2057276933885572;-0.009238795325112863;0;0;0;0;0
1.2127377381175606;-0.0095694033573220944;0;0;0;0;0
1.2197477828465637;-0.0098078528040323014;0;0;0;0;0
1.2267578275755668;-0.0099518472667219672;0;0;0;0;0
1.2337678723045702;-0.01;0;0;0;0;0
1.2407779170335735;-0.0099518472667219689;0;0;0;0;0
1.2477879617625767;-0.0098078528040323031;0;0;0;0;0
1.2547980064915798;-0.0095694033573220979;0;0;0;0;0
1.2618080512205831;-0.0092387953251128682;0;0;0;0;0
1.2688180959495865;-0.0088192126434835528;0;0;0;0;0
1.2758281406785896;-0.0083146961230254578;0;0;0;0;0
1.2828381854075928;-0.0077301045336273782;0;0;0;0;0
1.2898482301365961;-0.0070710678118654866;0;0;0;0;0
1.2968582748655995;-0.0063439328416364429;0;0;0;0;0
1.3038683195946026;-0.0055557023301960407;0;0;0;0;0
1.3108783643236057;-0.0047139673682599992;0;0;0;0;0
1.3178884090526091;-0.0038268343236508924;0;0;0;0;0
1.3248984537816124;-0.0029028467725446213;0;0;0;0;0
1.3319084985106155;-0.0019509032201612834;0;0;0;0;0
1.3389185432396187;-0.00098017140329564531;0;0;0;0;0
1.345928587968622;-7.3478807948841184e-18;0;0;0;0;0
1.3529386326976254;0.00098017140329563078;0;0;0;0;0
1.3599486774266285;0.0019509032201612689;0;0;0;0;0
1.3669587221556316;0.0029028467725446074;0;0;0;0;0
1.373968766884635;0.0038268343236508785;0;0;0;0;0
1.3809788116136383;0.0047139673682599862;0;0;0;0;0
1.3879888563426415;0.0055557023301960285;0;0;0;0;0
1.3949989010716446;0.0063439328416364316;0;0;0;0;0
1.4020089458006479;0.0070710678118654762;0;0;0;0;0
1.4090189905296513;0.0077301045336273678;0;0;0;0;0
1.4160290352586544;0.0083146961230254491;0;0;0;0;0
1.4230390799876576;0.0088192126434835458;0;0;0;0;0
1.4300491247166609;0.009238795325112863;0;0;0;0;0
1.4370591694456643;0.0095694033573220944;0;0;0;0;0
1.4440692141746674;0.0098078528040323014;0;0;0;0;0
1.4510792589036705;0.0099518472667219672;0;0;0;0;0
1.4580893036326739;0.01;0;0;0;0;0
1.4650993483616772;0.0099518472667219689;0;0;0;0;0
1.4721093930906803;0.0098078528040323049;0;0;0;0;0
1.4791194378196835;0.0095694033573220996;0;0;0;0;0
1.4861294825486868;0.0092387953251128682;0;0;0;0;0
1.4931395272776902;0.0088192126434835545;0;0;0;0;0
1.5001495720066933;0.0083146961230254578;0;0;0;0;0
1.5071596167356964;0.0077301045336273791;0;0;0;0;0
1.5141696614646998;0.0070710678118654866;0;0;0;0;0
1.5211797061937031;0.0063439328416364437;0;0;0;0;0
1.5281897509227063;0.0055557023301960416;0;0;0;0;0
1.5351997956517094;0.0047139673682600001;0;0;0;0;0
1.5422098403807127;0.0038268343236508933;0;0;0;0;0
1.5492198851097161;0.0029028467725446222;0;0;0;0;0
1.5562299298387192;0.0019509032201612845;0;0;0;0;0
1.5632399745677223;0.00098017140329564661;0;0;0;0;0
1.5702500192967257;8.572527594031472e-18;0;0;0;0;0
1.577260064025729;-0.00098017140329562948;0;0;0;0;0
1.5842701087547322;-0.0019509032201612678;0;0;0;0;0
1.5912801534837353;-0.0029028467725446057;0;0;0;0;0
1.5982901982127387;-0.0038268343236508772;0;0;0;0;0
1.605300242941742;-0.0047139673682599853;0;0;0;0;0
1.6123102876707451;-0.0055557023301960277;0;0;0;0;0
1.6193203323997483;-0.0063439328416364307;0;0;0;0;0
1.6263303771287516;-0.0070710678118654762;0;0;0;0;0
1.633340421857755;-0.0077301045336273678;0;0;0;0;0
1.6403504665867581;-0.0083146961230254491;0;0;0;0;0
1.6473605113157612;-0.0088192126434835458;0;0;0;0;0
1.6543705560447646;-0.009238795325112863;0;0;0;0;0
1.6613806007737679;-0.0095694033573220944;0;0;0;0;0
1.6683906455027711;-0.0098078528040323014;0;0;0;0;0
1.6754006902317742;-0.0099518472667219672;0;0;0;0;0
1.6824107349607775;-0.01;0;0;0;0;0
1.6894207796897809;-0.0099518472667219689;0;0;0;0;0
1.696430824418784;-0.0098078528040323049;0;0;0;0;0
1.7034408691477871;-0.0095694033573220996;0;0;0;0;0
1.7104509138767905;-0.00923879532511287;0;0;0;0;0
1.7174609586057938;-0.0088192126434835545;0;0;0;0;0
1.724471003334797;-0.0083146961230254595;0;0;0;0;0
1.7314810480638001;-0.0077301045336273791;0;0;0;0;0
1.7384910927928034;-0.0070710678118654884;0;0;0;0;0
1.7455011375218068;-0.0063439328416364437;0;0;0;0;0
1.7525111822508099;-0.0055557023301960433;0;0;0;0;0
1.7595212269798131;-0.0047139673682600018;0;0;0;0;0
1.7665312717088164;-0.0038268343236508946;0;0;0;0;0
1.7735413164378198;-0.0029028467725446235;0;0;0;0;0
1.7805513611668229;-0.0019509032201612858;0;0;0;0;0
1.787561405895826;-0.00098017140329564791;0;0;0;0;0
1.7945714506248294;-9.7971743931788255e-18;0;0;0;0;0
1.8015814953538327;0.00098017140329562818;0;0;0;0;0
1.8085915400828358;0.0019509032201612665;0;0;0;0;0
1.815601584811839;0.0029028467725446044;0;0;0;0;0
1.8226116295408423;0.0038268343236508764;0;0;0;0;0
1.8296216742698457;0.0047139673682599845;0;0;0;0;0
1.8366317189988488;0.0055557023301960277;0;0;0;0;0
1.8436417637278519;0.0063439328416364299;0;0;0;0;0
1.8506518084568553;0.0070710678118654745;0;0;0;0;0
1.8576618531858586;0.0077301045336273669;0;0;0;0;0
1.8646718979148618;0.0083146961230254474;0;0;0;0;0
1.8716819426438649;0.0088192126434835458;0;0;0;0;0
1.8786919873728682;0.0092387953251128613;0;0;0;0;0
1.8857020321018716;0.0095694033573220944;0;0;0;0;0
1.8927120768308747;0.0098078528040322997;0;0;0;0;0
1.8997221215598779;0.0099518472667219655;0;0;0;0;0
1.9067321662888812;0.01;0;0;0;0;0
1.9137422110178846;0.0099518472667219689;0;0;0;0;0
1.9207522557468877;0.0098078528040323049;0;0;0;0;0
1.9277623004758908;0.0095694033573220996;0;0;0;0;0
1.9347723452048942;0.00923879532511287;0;0;0;0;0
1.9417823899338975;0.0088192126434835545;0;0;0;0;0
1.9487924346629006;0.0083146961230254595;0;0;0;0;0
1.9558024793919038;0.0077301045336273799;0;0;0;0;0
1.9628125241209071;0.0070710678118654892;0;0;0;0;0
1.9698225688499105;0.0063439328416364446;0;0;0;0;0
1.9768326135789136;0.0055557023301960442;0;0;0;0;0
1.9838426583079167;0.0047139673682600027;0;0;0;0;0
1.9908527030369201;0.0038268343236508959;0;0;0;0;0
1.9978627477659234;0.0029028467725446244;0;0;0;0;0
2.0048727924949263;0.0019509032201613216;0;0;0;0;0
2.0118828372239297;0.000980171403295649;0;0;0;0;0
2.018892881952933;1.1021821192326179e-17;0;0;0;0;0
2.0259029266819364;-0.0009801714032956271;0;0;0;0;0
2.0329129714109397;-0.0019509032201612999;0;0;0;0;0
2.0399230161399426;-0.0029028467725446035;0;0;0;0;0
2.046933060868946;-0.0038268343236508751;0;0;0;0;0
2.0539431055979493;-0.0047139673682599836;0;0;0;0;0
2.0609531503269523;-0.0055557023301959964;0;0;0;0;0
2.0679631950559556;-0.0063439328416364281;0;0;0;0;0
2.074973239784959;-0.0070710678118654736;0;0;0;0;0
2.0819832845139623;-0.007730104533627366;0;0;0;0;0
2.0889933292429657;-0.0083146961230254664;0;0;0;0;0
2.0960033739719686;-0.0088192126434835441;0;0;0;0;0
2.1030134187009719;-0.0092387953251128613;0;0;0;0;0
2.1100234634299753;-0.0095694033573220944;0;0;0;0;0
2.1170335081589782;-0.0098078528040322927;0;0;0;0;0
2.1240435528879815;-0.0099518472667219655;0;0;0;0;0
2.1310535976169849;-0.01;0;0;0;0;0
2.1380636423459882;-0.0099518472667219689;0;0;0;0;0
2.1450736870749916;-0.0098078528040322979;0;0;0;0;0
2.1520837318039945;-0.0095694033573221014;0;0;0;0;0
2.1590937765329978;-0.0092387953251128717;0;0;0;0;0
2.1661038212620012;-0.0088192126434835545;0;0;0;0;0
2.1731138659910041;-0.0083146961230254803;0;0;0;0;0
2.1801239107200074;-0.0077301045336273808;0;0;0;0;0
2.1871339554490108;-0.0070710678118654901;0;0;0;0;0
2.1941440001780141;-0.0063439328416364463;0;0;0;0;0
2.2011540449070175;-0.0055557023301960155;0;0;0;0;0
2.2081640896360204;-0.0047139673682600036;0;0;0;0;0
2.2151741343650238;-0.0038268343236508968;0;0;0;0;0
2.2221841790940271;-0.0029028467725446257;0;0;0;0;0
2.22919422382303;-0.0019509032201613231;0;0;0;0;0
2.2362042685520334;-0.00098017140329565008;0;0;0;0;0
2.2432143132810367;-1.2246467991473533e-17;0;0;0;0;0
2.2502243580100401;0.00098017140329562579;0;0;0;0;0
2.2572344027390434;0.0019509032201612988;0;0;0;0;0
2.2642444474680463;0.0029028467725446022;0;0;0;0;0
2.2712544921970497;0.0038268343236508742;0;0;0;0;0
2.278264536926053;0.0047139673682599819;0;0;0;0;0
2.2852745816550559;0.0055557023301959956;0;0;0;0;0
2.2922846263840593;0.006343932841636455;0;0;0;0;0
2.2992946711130626;0.0070710678118654485;0;0;0;0;0
2.306304715842066;0.007730104533627366;0;0;0;0;0
2.3133147605710693;0.0083146961230254664;0;0;0;0;0
2.3203248053000722;0.0088192126434835441;0;0;0;0;0
2.3273348500290756;0.0092387953251128734;0;0;0;0;0
2.3343448947580789;0.0095694033573220823;0;0;0;0;0
2.3413549394870818;0.0098078528040322927;0;0;0;0;0
2.3483649842160852;0.0099518472667219655;0;0;0;0;0
2.3553750289450885;0.01;0;0;0;0;0
2.3623850736740919;0.0099518472667219655;0;0;0;0;0
2.3693951184030952;0.0098078528040323049;0;0;0;0;0
2.3764051631320982;0.0095694033573221014;0;0;0;0;0
2.3834152078611015;0.0092387953251128717;0;0;0;0;0
2.3904252525901049;0.0088192126434835389;0;0;0;0;0
2.3974352973191078;0.0083146961230254612;0;0;0;0;0
2.4044453420481111;0.0077301045336274042;0;0;0;0;0
2.4114553867771145;0.0070710678118654918;0;0;0;0;0
2.4184654315061178;0.0063439328416364472;0;0;0;0;0
2.4254754762351212;0.0055557023301959878;0;0;0;0;0
2.4324855209641241;0.0047139673682599741;0;0;0;0;0
2.4394955656931274;0.0038268343236509306;0;0;0;0;0
2.4465056104221308;0.0029028467725446265;0;0;0;0;0
2.4535156551511337;0.0019509032201613242;0;0;0;0;0
2.460525699880137;0.00098017140329561604;0;0;0;0;0
2.4675357446091404;-2.2056021997384124e-17;0;0;0;0;0
2.4745457893381437;-0.00098017140329558937;0;0;0;0;0
2.4815558340671471;-0.0019509032201612978;0;0;0;0;0
2.48856587879615;-0.0029028467725446014;0;0;0;0;0
2.4955759235251533;-0.0038268343236509059;0;0;0;0;0
2.5025859682541567;-0.0047139673682599498;0;0;0;0;0
2.5095960129831596;-0.0055557023301959652;0;0;0;0;0
2.5166060577121629;-0.0063439328416364264;0;0;0;0;0
2.5236161024411663;-0.007071067811865471;0;0;0;0;0
2.5306261471701696;-0.0077301045336273869;0;0;0;0;0
2.537636191899173;-0.0083146961230254456;0;0;0;0;0
2.5446462366281759;-0.0088192126434835268;0;0;0;0;0
2.5516562813571793;-0.0092387953251128613;0;0;0;0;0
2.5586663260861826;-0.0095694033573220927;0;0;0;0;0
2.5656763708151855;-0.0098078528040322997;0;0;0;0;0
2.5726864155441889;-0.009951847266721962;0;0;0;0;0
2.5796964602731922;-0.01;0;0;0;0;0
2.5867065050021956;-0.0099518472667219689;0;0;0;0;0
2.5937165497311989;-0.0098078528040322979;0;0;0;0;0
2.6007265944602018;-0.0095694033573220909;0;0;0;0;0
2.6077366391892052;-0.0092387953251128856;0;0;0;0;0
2.6147466839182085;-0.0088192126434835563;0;0;0;0;0
2.6217567286472114;-0.0083146961230254821;0;0;0;0;0
2.6287667733762148;-0.0077301045336273825;0;0;0;0;0
2.6357768181052181;-0.0070710678118654667;0;0;0;0;0
2.6427868628342215;-0.0063439328416364758;0;0;0;0;0
2.6497969075632248;-0.0055557023301960173;0;0;0;0;0
2.6568069522922277;-0.0047139673682600062;0;0;0;0;0
2.6638169970212311;-0.0038268343236508989;0;0;0;0;0
2.6708270417502344;-0.002902846772544594;0;0;0;0;0
2.6778370864792373;-0.0019509032201613602;0;0;0;0;0
2.6848471312082407;-0.00098017140329565268;0;0;0;0;0
2.6918571759372441;-1.4695761589768237e-17;0;0;0;0;0
2.6988672206662474;0.00098017140329562341;0;0;0;0;0
2.7058772653952508;0.0019509032201613314;0;0;0;0;0
2.7128873101242537;0.0029028467725445662;0;0;0;0;0
2.719897354853257;0.0038268343236508716;0;0;0;0;0
2.7269073995822604;0.0047139673682599801;0;0;0;0;0
2.7339174443112633;0.005555702330195993;0;0;0;0;0
2.7409274890402666;0.0063439328416364524;0;0;0;0;0
2.74793753376927;0.0070710678118654459;0;0;0;0;0
2.7549475784982733;0.0077301045336273634;0;0;0;0;0
2.7619576232272767;0.0083146961230254647;0;0;0;0;0
2.7689676679562796;0.0088192126434835424;0;0;0;0;0
2.7759777126852829;0.0092387953251128734;0;0;0;0;0
2.7829877574142863;0.0095694033573220823;0;0;0;0;0
2.7899978021432892;0.0098078528040322927;0;0;0;0;0
2.7970078468722925;0.0099518472667219655;0;0;0;0;0
2.8040178916012959;0.01;0;0;0;0;0
2.8110279363302992;0.0099518472667219655;0;0;0;0;0
2.8180379810593026;0.0098078528040323049;0;0;0;0;0
2.8250480257883055;0.0095694033573221014;0;0;0;0;0
2.8320580705173088;0.0092387953251128717;0;0;0;0;0
2.8390681152463122;0.0088192126434835406;0;0;0;0;0
2.8460781599753151;0.008314696123025463;0;0;0;0;0
2.8530882047043185;0.0077301045336274059;0;0;0;0;0
2.8600982494333218;0.0070710678118654927;0;0;0;0;0
2.8671082941623252;0.0063439328416364498;0;0;0;0;0
2.8741183388913285;0.0055557023301959895;0;0;0;0;0
2.8811283836203314;0.0047139673682599758;0;0;0;0;0
2.8881384283493348;0.0038268343236509328;0;0;0;0;0
2.8951484730783381;0.0029028467725446296;0;0;0;0;0
2.902158517807341;0.0019509032201613266;0;0;0;0;0
2.9091685625363444;0.00098017140329561864;0;0;0;0;0
2.9161786072653477;-1.9606728399089417e-17;0;0;0;0;0
2.9231886519943511;-0.00098017140329558698;0;0;0;0;0
2.9301986967233544;-0.0019509032201612954;0;0;0;0;0
2.9372087414523573;-0.0029028467725445988;0;0;0;0;0
2.9442187861813607;-0.0038268343236509033;0;0;0;0;0
2.951228830910364;-0.004713967368259948;0;0;0;0;0
2.9582388756393669;-0.0055557023301959626;0;0;0;0;0
2.9652489203683703;-0.0063439328416364247;0;0;0;0;0
2.9722589650973736;-0.0070710678118654701;0;0;0;0;0
2.979269009826377;-0.007730104533627386;0;0;0;0;0
2.9862790545553803;-0.0083146961230254439;0;0;0;0;0
2.9932890992843832;-0.008819212643483525;0;0;0;0;0
3.0002991440133866;-0.0092387953251128595;0;0;0;0;0
3.0073091887423899;-0.0095694033573220909;0;0;0;0;0
3.0143192334713929;-0.0098078528040322997;0;0;0;0;0
3.0213292782003962;-0.009951847266721962;0;0;0;0;0
3.0283393229293996;-0.01;0;0;0;0;0
3.0353493676584029;-0.0099518472667219689;0;0;0;0;0
3.0423594123874063;-0.0098078528040322997;0;0;0;0;0
3.0493694571164092;-0.0095694033573220909;0;0;0;0;0
3.0563795018454125;-0.0092387953251128873;0;0;0;0;0
3.0633895465744159;-0.008819212643483558;0;0;0;0;0
3.0703995913034188;-0.0083146961230254821;0;0;0;0;0
3.0774096360324221;-0.0077301045336273834;0;0;0;0;0
3.0844196807614255;-0.0070710678118654684;0;0;0;0;0
3.0914297254904288;-0.0063439328416364776;0;0;0;0;0
3.0984397702194322;-0.0055557023301960199;0;0;0;0;0
3.1054498149484351;-0.0047139673682600079;0;0;0;0;0
3.1124598596774384;-0.0038268343236509011;0;0;0;0;0
3.1194699044064418;-0.0029028467725445966;0;0;0;0;0
3.1264799491354447;-0.0019509032201613628;0;0;0;0;0
3.133489993864448;-0.00098017140329565507;0;0;0;0;0
3.1405000385934514;-1.7145055188062944e-17;0;0;0;0;0
3.1475100833224547;0.00098017140329562102;0;0;0;0;0
3.1545201280514581;0.001950903220161329;0;0;0;0;0
3.161530172780461;0.0029028467725445632;0;0;0;0;0
3.1685402175094644;0.0038268343236508694;0;0;0;0;0
3.1755502622384677;0.0047139673682599784;0;0;0;0;0
3.1825603069674706;0.0055557023301959904;0;0;0;0;0
3.189570351696474;0.0063439328416364507;0;0;0;0;0
3.1965803964254773;0.0070710678118654433;0;0;0;0;0
3.2035904411544807;0.0077301045336273626;0;0;0;0;0
3.210600485883484;0.008314696123025463;0;0;0;0;0
3.2176105306124869;0.0088192126434835424;0;0;0;0;0
3.2246205753414903;0.0092387953251128734;0;0;0;0;0
3.2316306200704936;0.0095694033573220823;0;0;0;0;0
3.2386406647994965;0.0098078528040322927;0;0;0;0;0
3.2456507095284999;0.0099518472667219655;0;0;0;0;0
3.2526607542575032;0.01;0;0;0;0;0
3.2596707989865066;0.0099518472667219655;0;0;0;0;0
3.2666808437155099;0.0098078528040323049;0;0;0;0;0
3.2736908884445128;0.0095694033573221014;0;0;0;0;0
3.2807009331735162;0.0092387953251128734;0;0;0;0;0
3.2877109779025195;0.0088192126434835424;0;0;0;0;0
3.2947210226315224;0.008314696123025463;0;0;0;0;0
3.3017310673605258;0.0077301045336274068;0;0;0;0;0
3.3087411120895291;0.0070710678118654944;0;0;0;0;0
3.3157511568185325;0.0063439328416364507;0;0;0;0;0
3.3227612015475358;0.0055557023301959904;0;0;0;0;0
3.3297712462765388;0.0047139673682599784;0;0;0;0;0
3.3367812910055421;0.0038268343236509349;0;0;0;0;0
3.3437913357345455;0.0029028467725446317;0;0;0;0;0
3.3508013804635484;0.001950903220161329;0;0;0;0;0
3.3578114251925517;0.00098017140329562081;0;0;0;0;0
3.3648214699215551;-1.7157434800794713e-17;0;0;0;0;0
3.3718315146505584;-0.00098017140329558438;0;0;0;0;0
3.3788415593795618;-0.001950903220161293;0;0;0;0;0
3.3858516041085647;-0.0029028467725445966;0;0;0;0;0
3.392861648837568;-0.0038268343236509011;0;0;0;0;0
3.3998716935665714;-0.0047139673682599454;0;0;0;0;0
3.4068817382955743;-0.0055557023301959609;0;0;0;0;0
3.4138917830245776;-0.0063439328416364229;0;0;0;0;0
3.420901827753581;-0.0070710678118654684;0;0;0;0;0
3.4279118724825843;-0.0077301045336273834;0;0;0;0;0
3.4349219172115877;-0.0083146961230254439;0;0;0;0;0
3.4419319619405906;-0.0088192126434835233;0;0;0;0;0
3.4489420066695939;-0.0092387953251128595;0;0;0;0;0
3.4559520513985973;-0.0095694033573220909;0;0;0;0;0
3.4629620961276002;-0.0098078528040322997;0;0;0;0;0
3.4699721408566035;-0.009951847266721962;0;0;0;0;0
3.4769821855856069;-0.01;0;0;0;0;0
3.4839922303146103;-0.0099518472667219689;0;0;0;0;0
3.4910022750436136;-0.0098078528040322997;0;0;0;0;0
3.4980123197726165;-0.0095694033573220909;0;0;0;0;0
3.5050223645016199;-0.0092387953251128873;0;0;0;0;0
3.5120324092306232;-0.008819212643483558;0;0;0;0;0
3.5190424539596261;-0.0083146961230254855;0;0;0;0;0
3.5260524986886295;-0.007730104533627386;0;0;0;0;0
3.5330625434176328;-0.0070710678118654701;0;0;0;0;0
3.5400725881466362;-0.0063439328416364793;0;0;0;0;0
3.5470826328756395;-0.0055557023301960216;0;0;0;0;0
3.5540926776046424;-0.0047139673682600105;0;0;0;0;0
3.5611027223336458;-0.0038268343236509033;0;0;0;0;0
3.5681127670626491;-0.0029028467725445988;0;0;0;0;0
3.575122811791652;-0.001950903220161365;0;0;0;0;0
3.5821328565206554;-0.00098017140329565745;0;0;0;0;0
3.5891429012496587;-1.9594348786357651e-17;0;0;0;0;0
3.5961529459786621;0.00098017140329561864;0;0;0;0;0
3.6031629907076654;0.0019509032201613266;0;0;0;0;0
3.6101730354366683;0.002902846772544561;0;0;0;0;0
3.6171830801656717;0.0038268343236508673;0;0;0;0;0
3.624193124894675;0.0047139673682599758;0;0;0;0;0
3.631203169623678;0.0055557023301959895;0;0;0;0;0
3.6382132143526813;0.0063439328416364498;0;0;0;0;0
3.6452232590816847;0.0070710678118654424;0;0;0;0;0
3.652233303810688;0.00773010453362736;0;0;0;0;0
3.6592433485396914;0.008314696123025463;0;0;0;0;0
3.6662533932686943;0.0088192126434835406;0;0;0;0;0
3.6732634379976976;0.0092387953251128717;0;0;0;0;0
3.680273482726701;0.0095694033573220805;0;0;0;0;0
3.6872835274557039;0.009807852804032291;0;0;0;0;0
3.6942935721847072;0.0099518472667219655;0;0;0;0;0
3.7013036169137106;0.01;0;0;0;0;0
3.7083136616427139;0.0099518472667219655;0;0;0;0;0
3.7153237063717173;0.0098078528040323066;0;0;0;0;0
3.7223337511007202;0.0095694033573221031;0;0;0;0;0
3.7293437958297235;0.0092387953251128734;0;0;0;0;0
3.7363538405587269;0.0088192126434835424;0;0;0;0;0
3.7433638852877298;0.0083146961230254647;0;0;0;0;0
3.7503739300167331;0.0077301045336274085;0;0;0;0;0
3.7573839747457365;0.0070710678118654962;0;0;0;0;0
3.7643940194747398;0.0063439328416364524;0;0;0;0;0
3.7714040642037432;0.005555702330195993;0;0;0;0;0
3.7784141089327461;0.0047139673682599801;0;0;0;0;0
3.7854241536617494;0.0038268343236509375;0;0;0;0;0
3.7924341983907528;0.0029028467725446339;0;0;0;0;0
3.7994442431197557;0.0019509032201613314;0;0;0;0;0
3.8064542878487591;0.00098017140329562341;0;0;0;0;0
3.8134643325777624;-1.4708141202500005e-17;0;0;0;0;0
3.8204743773067658;-0.00098017140329558199;0;0;0;0;0
3.8274844220357691;-0.0019509032201612906;0;0;0;0;0
3.834494466764772;-0.002902846772544594;0;0;0;0;0
3.8415045114937754;-0.0038268343236508989;0;0;0;0;0
3.8485145562227787;-0.0047139673682599428;0;0;0;0;0
3.8555246009517816;-0.0055557023301959583;0;0;0;0;0
3.862534645680785;-0.0063439328416364203;0;0;0;0;0
3.8695446904097883;-0.0070710678118654667;0;0;0;0;0
3.8765547351387917;-0.0077301045336273825;0;0;0;0;0
3.883564779867795;-0.0083146961230254422;0;0;0;0;0
3.8905748245967979;-0.0088192126434835233;0;0;0;0;0
3.8975848693258013;-0.0092387953251128578;0;0;0;0;0
3.9045949140548046;-0.0095694033573220909;0;0;0;0;0
3.9116049587838075;-0.0098078528040322979;0;0;0;0;0
3.9186150035128109;-0.009951847266721962;0;0;0;0;0
3.9256250482418142;-0.01;0;0;0;0;0
3.9326350929708176;-0.0099518472667219689;0;0;0;0;0
3.9396451376998209;-0.0098078528040322997;0;0;0;0;0
3.9466551824288238;-0.0095694033573220927;0;0;0;0;0
3.9536652271578272;-0.0092387953251128873;0;0;0;0;0
3.9606752718868306;-0.0088192126434835615;0;0;0;0;0
3.9676853166158335;-0.0083146961230254855;0;0;0;0;0
3.9746953613448368;-0.0077301045336273869;0;0;0;0;0
3.9817054060738402;-0.007071067811865471;0;0;0;0;0
3.9887154508028435;-0.0063439328416364819;0;0;0;0;0
3.9957254955318469;-0.0055557023301960242;0;0;0;0;0
4.0027355402608498;-0.0047139673682600122;0;0;0;0;0
4.0097455849898527;-0.0038268343236509714;0;0;0;0;0
4.0167556297188565;-0.0029028467725446014;0;0;0;0;0
4.0237656744478594;-0.0019509032201613674;0;0;0;0;0
4.0307757191768632;-0.00098017140329558937;0;0;0;0;0
4.0377857639058661;-2.2043642384652358e-17;0;0;0;0;0
4.044795808634869;0.00098017140329554535;0;0;0;0;0
4.0518058533638728;0.0019509032201613242;0;0;0;0;0
4.0588158980928757;0.0029028467725445589;0;0;0;0;0
4.0658259428218795;0.0038268343236509306;0;0;0;0;0
4.0728359875508824;0.0047139673682599741;0;0;0;0;0
4.0798460322798853;0.0055557023301959878;0;0;0;0;0
4.0868560770088891;0.0063439328416364472;0;0;0;0;0
4.093866121737892;0.0070710678118654407;0;0;0;0;0
4.1008761664668949;0.0077301045336273131;0;0;0;0;0
4.1078862111958987;0.0083146961230254612;0;0;0;0;0
4.1148962559249016;0.0088192126434835389;0;0;0;0;0
4.1219063006539045;0.0092387953251128439;0;0;0;0;0
4.1289163453829083;0.0095694033573220788;0;0;0;0;0
4.1359263901119112;0.009807852804032291;0;0;0;0;0
4.142936434840915;0.0099518472667219724;0;0;0;0;0
4.1499464795699179;0.01;0;0;0;0;0
4.1569565242989208;0.0099518472667219724;0;0;0;0;0
4.1639665690279246;0.0098078528040323066;0;0;0;0;0
4.1709766137569275;0.0095694033573221048;0;0;0;0;0
4.1779866584859313;0.0092387953251128474;0;0;0;0;0
4.1849967032149342;0.0088192126434835441;0;0;0;0;0
4.1920067479439371;0.0083146961230254664;0;0;0;0;0
4.1990167926729409;0.007730104533627366;0;0;0;0;0
4.2060268374019438;0.0070710678118654979;0;0;0;0;0
4.2130368821309467;0.0063439328416365097;0;0;0;0;0
4.2200469268599505;0.0055557023301959956;0;0;0;0;0
4.2270569715889534;0.0047139673682599819;0;0;0;0;0
4.2340670163179563;0.0038268343236510052;0;0;0;0;0
4.2410770610469601;0.0029028467725446361;0;0;0;0;0
4.248087105775963;0.001950903220161334;0;0;0;0;0
4.2550971505049668;0.0009801714032955551;0;0;0;0;0
4.2621071952339697;-1.22588476042053e-17;0;0;0;0;0
4.2691172399629727;-0.0009801714032955087;0;0;0;0;0
4.2761272846919764;-0.001950903220161288;0;0;0;0;0
4.2831373294209794;-0.0029028467725445918;0;0;0;0;0
4.2901473741499832;-0.0038268343236509622;0;0;0;0;0
4.2971574188789861;-0.0047139673682599411;0;0;0;0;0
4.304167463607989;-0.0055557023301959566;0;0;0;0;0
4.3111775083369928;-0.0063439328416364741;0;0;0;0;0
4.3181875530659957;-0.0070710678118654649;0;0;0;0;0
4.3251975977949986;-0.0077301045336273357;0;0;0;0;0
4.3322076425240024;-0.0083146961230254404;0;0;0;0;0
4.3392176872530053;-0.0088192126434835216;0;0;0;0;0
4.3462277319820082;-0.0092387953251128301;0;0;0;0;0
4.353237776711012;-0.0095694033573220892;0;0;0;0;0
4.3602478214400149;-0.0098078528040322979;0;0;0;0;0
4.3672578661690187;-0.0099518472667219689;0;0;0;0;0
4.3742679108980216;-0.01;0;0;0;0;0
4.3812779556270245;-0.0099518472667219776;0;0;0;0;0
4.3882880003560283;-0.0098078528040322997;0;0;0;0;0
4.3952980450850312;-0.0095694033573220944;0;0;0;0;0
4.402308089814035;-0.0092387953251128613;0;0;0;0;0
4.4093181345430379;-0.0088192126434835615;0;0;0;0;0
4.4163281792720408;-0.0083146961230254873;0;0;0;0;0
4.4233382240010446;-0.0077301045336273435;0;0;0;0;0
4.4303482687300475;-0.0070710678118654736;0;0;0;0;0
4.4373583134590504;-0.0063439328416364828;0;0;0;0;0
4.4443683581880542;-0.0055557023301960259;0;0;0;0;0
4.4513784029170571;-0.0047139673682600148;0;0;0;0;0
4.45838844764606;-0.0038268343236509735;0;0;0;0;0
4.4653984923750638;-0.0029028467725446035;0;0;0;0;0
4.4724085371040667;-0.00195090322016137;0;0;0;0;0
4.4794185818330705;-0.00098017140329559175;0;0;0;0;0
4.4864286265620734;-2.4492935982947065e-17;0;0;0;0;0
4.4934386712910763;0.00098017140329554296;0;0;0;0;0
4.5004487160200801;0.0019509032201613216;0;0;0;0;0
4.507458760749083;0.0029028467725445567;0;0;0;0;0
4.5144688054780868;0.0038268343236509284;0;0;0;0;0
4.5214788502070897;0.0047139673682599715;0;0;0;0;0
4.5284888949360926;0.0055557023301959852;0;0;0;0;0
4.5354989396650964;0.0063439328416364446;0;0;0;0;0
4.5425089843940993;0.0070710678118654389;0;0;0;0;0
4.5495190291231022;0.0077301045336273123;0;0;0;0;0
4.556529073852106;0.0083146961230254595;0;0;0;0;0
4.5635391185811089;0.0088192126434835389;0;0;0;0;0
4.5705491633101119;0.0092387953251128439;0;0;0;0;0
4.5775592080391156;0.0095694033573220996;0;0;0;0;0
4.5845692527681186;0.0098078528040323049;0;0;0;0;0
4.5915792974971223;0.0099518472667219655;0;0;0;0;0
4.5985893422261253;0.01;0;0;0;0;0
4.6055993869551282;0.0099518472667219811;0;0;0;0;0
4.612609431684132;0.0098078528040323083;0;0;0;0;0
4.6196194764131349;0.0095694033573221048;0;0;0;0;0
4.6266295211421387;0.0092387953251128491;0;0;0;0;0
4.6336395658711416;0.0088192126434835458;0;0;0;0;0
4.6406496106001445;0.0083146961230254682;0;0;0;0;0
4.6476596553291483;0.0077301045336273209;0;0;0;0;0
4.6546697000581512;0.0070710678118654493;0;0;0;0;0
4.6616797447871541;0.0063439328416364576;0;0;0;0;0
4.6686897895161579;0.0055557023301960563;0;0;0;0;0
4.6756998342451608;0.0047139673682600469;0;0;0;0;0
4.6827098789741637;0.0038268343236510078;0;0;0;0;0
4.6897199237031675;0.0029028467725446391;0;0;0;0;0
4.6967299684321704;0.0019509032201613361;0;0;0;0;0
4.7037400131611742;0.00098017140329555771;0;0;0;0;0
4.7107500578901771;-9.8095540059105926e-18;0;0;0;0;0
4.71776010261918;-0.00098017140329557701;0;0;0;0;0
4.7247701473481838;-0.0019509032201613554;0;0;0;0;0
4.7317801920771867;-0.0029028467725445211;0;0;0;0;0
4.7387902368061905;-0.0038268343236508946;0;0;0;0;0
4.7458002815351934;-0.0047139673682599385;0;0;0;0;0
4.7528103262641963;-0.0055557023301959539;0;0;0;0;0
4.7598203709932001;-0.0063439328416364715;0;0;0;0;0
4.766830415722203;-0.0070710678118654641;0;0;0;0;0
4.7738404604512059;-0.0077301045336273348;0;0;0;0;0
4.7808505051802097;-0.0083146961230254786;0;0;0;0;0
4.7878605499092126;-0.0088192126434835545;0;0;0;0;0
4.7948705946382155;-0.0092387953251128561;0;0;0;0;0
4.8018806393672193;-0.0095694033573220684;0;0;0;0;0
4.8088906840962222;-0.009807852804032284;0;0;0;0;0
4.815900728825226;-0.0099518472667219689;0;0;0;0;0
4.8229107735542289;-0.01;0;0;0;0;0
4.8299208182832318;-0.0099518472667219776;0;0;0;0;0
4.8369308630122356;-0.0098078528040323014;0;0;0;0;0
4.8439409077412385;-0.0095694033573220944;0;0;0;0;0
4.8509509524702423;-0.0092387953251128353;0;0;0;0;0
4.8579609971992452;-0.0088192126434835285;0;0;0;0;0
4.8649710419282481;-0.0083146961230254491;0;0;0;0;0
4.8719810866572519;-0.0077301045336273903;0;0;0;0;0
4.8789911313862548;-0.0070710678118655257;0;0;0;0;0
4.8860011761152577;-0.0063439328416365409;0;0;0;0;0
4.8930112208442615;-0.0055557023301960277;0;0;0;0;0
4.9000212655732645;-0.0047139673682600174;0;0;0;0;0
4.9070313103022674;-0.0038268343236509757;0;0;0;0;0
4.9140413550312712;-0.0029028467725446057;0;0;0;0;0
4.9210513997602741;-0.0019509032201613025;0;0;0;0;0
4.9280614444892779;-0.00098017140329552345;0;0;0;0;0
4.9350714892182808;4.4112043994768248e-17;0;0;0;0;0
4.9420815339472837;0.00098017140329546967;0;0;0;0;0
4.9490915786762875;0.0019509032201612498;0;0;0;0;0
4.9561016234052904;0.0029028467725445545;0;0;0;0;0
4.9631116681342942;0.0038268343236509262;0;0;0;0;0
4.9701217128632971;0.0047139673682599697;0;0;0;0;0
4.9771317575923;0.0055557023301959834;0;0;0;0;0
4.9841418023213038;0.0063439328416364984;0;0;0;0;0
4.9911518470503067;0.0070710678118654866;0;0;0;0;0
4.9981618917793096;0.0077301045336273556;0;0;0;0;0
5.0051719365083134;0.0083146961230254196;0;0;0;0;0
5.0121819812373163;0.0088192126434835042;0;0;0;0;0
5.0191920259663192;0.0092387953251128144;0;0;0;0;0
5.026202070695323;0.0095694033573220788;0;0;0;0;0
5.0332121154243259;0.0098078528040322892;0;0;0;0;0
5.0402221601533297;0.0099518472667219724;0;0;0;0;0
5.0472322048823326;0.01;0;0;0;0;0
5.0542422496113355;0.0099518472667219741;0;0;0;0;0
5.0612522943403393;0.0098078528040322945;0;0;0;0;0
5.0682623390693422;0.009569403357322084;0;0;0;0;0
5.075272383798346;0.0092387953251128769;0;0;0;0;0
5.0822824285273489;0.0088192126434835788;0;0;0;0;0
5.0892924732563518;0.0083146961230255098;0;0;0;0;0
5.0963025179853556;0.0077301045336273678;0;0;0;0;0
5.1033125627143585;0.0070710678118655014;0;0;0;0;0
5.1103226074433614;0.006343932841636514;0;0;0;0;0
5.1173326521723652;0.0055557023301959999;0;0;0;0;0
5.1243426969013681;0.0047139673682599862;0;0;0;0;0
5.131352741630371;0.003826834323650944;0;0;0;0;0
5.1383627863593748;0.0029028467725445727;0;0;0;0;0
5.1453728310883777;0.0019509032201614083;0;0;0;0;0
5.1523828758173815;0.00098017140329563078;0;0;0;0;0
5.1593929205463844;6.3694013168394139e-17;0;0;0;0;0
5.1664029652753873;-0.00098017140329550393;0;0;0;0;0
5.1734130100043911;-0.0019509032201612834;0;0;0;0;0
5.180423054733394;-0.0029028467725445875;0;0;0;0;0
5.1874330994623978;-0.0038268343236509579;0;0;0;0;0
5.1944431441914007;-0.0047139673682599992;0;0;0;0;0
5.2014531889204036;-0.0055557023301960121;0;0;0;0;0
5.2084632336494074;-0.0063439328416364151;0;0;0;0;0
5.2154732783784103;-0.0070710678118654112;0;0;0;0;0
5.2224833231074133;-0.007730104533627288;0;0;0;0;0
5.2294933678364171;-0.0083146961230254387;0;0;0;0;0
5.23650341256542;-0.0088192126434835198;0;0;0;0;0
5.2435134572944229;-0.0092387953251128283;0;0;0;0;0
5.2505235020234267;-0.0095694033573220892;0;0;0;0;0
5.2575335467524296;-0.0098078528040322962;0;0;0;0;0
5.2645435914814334;-0.0099518472667219759;0;0;0;0;0
5.2715536362104363;-0.01;0;0;0;0;0
5.2785636809394392;-0.0099518472667219707;0;0;0;0;0
5.285573725668443;-0.0098078528040323153;0;0;0;0;0
5.2925837703974459;-0.0095694033573221152;0;0;0;0;0
5.2995938151264497;-0.009238795325112863;0;0;0;0;0
5.3066038598554526;-0.0088192126434835632;0;0;0;0;0
5.3136139045844555;-0.008314696123025489;0;0;0;0;0
5.3206239493134593;-0.007730104533627347;0;0;0;0;0
5.3276339940424622;-0.0070710678118654771;0;0;0;0;0
5.3346440387714651;-0.0063439328416364871;0;0;0;0;0
5.3416540835004689;-0.0055557023301959704;0;0;0;0;0
5.3486641282294718;-0.0047139673682599567;0;0;0;0;0
5.3556741729584747;-0.0038268343236510438;0;0;0;0;0
5.3626842176874785;-0.002902846772544676;0;0;0;0;0
5.3696942624164814;-0.0019509032201613747;0;0;0;0;0
5.3767043071454852;-0.00098017140329559652;0;0;0;0;0
5.3837143518744881;-2.9391523179536474e-17;0;0;0;0;0
5.390724396603491;0.00098017140329553797;0;0;0;0;0
5.3977344413324948;0.0019509032201613168;0;0;0;0;0
5.4047444860614977;0.00290284677254462;0;0;0;0;0
5.4117545307905015;0.0038268343236509896;0;0;0;0;0
5.4187645755195044;0.0047139673682599047;0;0;0;0;0
5.4257746202485073;0.0055557023301959219;0;0;0;0;0
5.4327846649775111;0.006343932841636442;0;0;0;0;0
5.439794709706514;0.0070710678118654363;0;0;0;0;0
5.4468047544355169;0.0077301045336273088;0;0;0;0;0
5.4538147991645207;0.0083146961230254578;0;0;0;0;0
5.4608248438935236;0.0088192126434835354;0;0;0;0;0
5.4678348886225265;0.0092387953251128405;0;0;0;0;0
5.4748449333515303;0.0095694033573220979;0;0;0;0;0
5.4818549780805332;0.0098078528040323031;0;0;0;0;0
5.488865022809537;0.0099518472667219655;0;0;0;0;0
5.4958750675385399;0.01;0;0;0;0;0
5.5028851122675428;0.0099518472667219811;0;0;0;0;0
5.5098951569965466;0.0098078528040323083;0;0;0;0;0
5.5169052017255495;0.0095694033573221048;0;0;0;0;0
5.5239152464545533;0.0092387953251128509;0;0;0;0;0
5.5309252911835562;0.0088192126434835476;0;0;0;0;0
5.5379353359125592;0.0083146961230254699;0;0;0;0;0
5.5449453806415629;0.0077301045336273244;0;0;0;0;0
5.5519554253705659;0.0070710678118654528;0;0;0;0;0
5.5589654700995688;0.0063439328416364602;0;0;0;0;0
5.5659755148285726;0.0055557023301960606;0;0;0;0;0
5.5729855595575755;0.0047139673682600513;0;0;0;0;0
5.5799956042865784;0.0038268343236510121;0;0;0;0;0
5.5870056490155822;0.0029028467725446434;0;0;0;0;0
5.5940156937445851;0.0019509032201613411;0;0;0;0;0
5.6010257384735889;0.00098017140329556248;0;0;0;0;0
5.6080357832025918;-4.9109668093211799e-18;0;0;0;0;0
5.6150458279315947;-0.00098017140329557224;0;0;0;0;0
5.6220558726605985;-0.0019509032201613504;0;0;0;0;0
5.6290659173896014;-0.0029028467725445168;0;0;0;0;0
5.6360759621186052;-0.0038268343236508903;0;0;0;0;0
5.6430860068476081;-0.004713967368259935;0;0;0;0;0
5.650096051576611;-0.0055557023301959505;0;0;0;0;0
5.6571060963056148;-0.006343932841636468;0;0;0;0;0
5.6641161410346177;-0.0070710678118654606;0;0;0;0;0
5.6711261857636206;-0.0077301045336273314;0;0;0;0;0
5.6781362304926244;-0.0083146961230254751;0;0;0;0;0
5.6851462752216273;-0.0088192126434835511;0;0;0;0;0
5.6921563199506302;-0.0092387953251128543;0;0;0;0;0
5.699166364679634;-0.0095694033573220667;0;0;0;0;0
5.7061764094086369;-0.0098078528040322823;0;0;0;0;0
5.7131864541376407;-0.0099518472667219689;0;0;0;0;0
5.7201964988666436;-0.01;0;0;0;0;0
5.7272065435956465;-0.0099518472667219776;0;0;0;0;0
5.7342165883246503;-0.0098078528040323014;0;0;0;0;0
5.7412266330536532;-0.0095694033573220962;0;0;0;0;0
5.748236677782657;-0.009238795325112837;0;0;0;0;0
5.7552467225116599;-0.008819212643483532;0;0;0;0;0
5.7622567672406628;-0.0083146961230254508;0;0;0;0;0
5.7692668119696666;-0.0077301045336273938;0;0;0;0;0
5.7762768566986695;-0.0070710678118655291;0;0;0;0;0
5.7832869014276724;-0.0063439328416365435;0;0;0;0;0
5.7902969461566762;-0.005555702330196032;0;0;0;0;0
5.7973069908856791;-0.0047139673682600209;0;0;0;0;0
5.804317035614682;-0.0038268343236509805;0;0;0;0;0
5.8113270803436858;-0.0029028467725446105;0;0;0;0;0
5.8183371250726887;-0.0019509032201613073;0;0;0;0;0
5.8253471698016925;-0.00098017140329552843;0;0;0;0;0
5.8323572145306954;3.9213456798178833e-17;0;0;0;0;0
5.8393672592596984;0.0009801714032954649;0;0;0;0;0
5.8463773039887021;0.0019509032201612448;0;0;0;0;0
5.8533873487177051;0.0029028467725445493;0;0;0;0;0
5.8603973934467088;0.0038268343236509219;0;0;0;0;0
5.8674074381757118;0.0047139673682599645;0;0;0;0;0
5.8744174829047147;0.0055557023301959782;0;0;0;0;0
5.8814275276337185;0.0063439328416364949;0;0;0;0;0
5.8884375723627214;0.007071067811865484;0;0;0;0;0
5.8954476170917243;0.0077301045336273522;0;0;0;0;0
5.9024576618207281;0.0083146961230254161;0;0;0;0;0
5.909467706549731;0.0088192126434835007;0;0;0;0;0
5.9164777512787339;0.0092387953251128127;0;0;0;0;0
5.9234877960077377;0.0095694033573220771;0;0;0;0;0
5.9304978407367406;0.0098078528040322892;0;0;0;0;0
5.9375078854657444;0.0099518472667219724;0;0;0;0;0
5.9445179301947473;0.01;0;0;0;0;0
5.9515279749237502;0.0099518472667219741;0;0;0;0;0
5.958538019652754;0.0098078528040322945;0;0;0;0;0
5.9655480643817569;0.0095694033573220857;0;0;0;0;0
5.9725581091107607;0.0092387953251128786;0;0;0;0;0
5.9795681538397636;0.0088192126434835823;0;0;0;0;0
5.9865781985687665;0.0083146961230255115;0;0;0;0;0
5.9935882432977703;0.0077301045336273713;0;0;0;0;0
6.0005982880267732;0.0070710678118655048;0;0;0;0;0
6.0076083327557761;0.0063439328416365175;0;0;0;0;0
6.0146183774847799;0.0055557023301960034;0;0;0;0;0
6.0216284222137828;0.0047139673682599905;0;0;0;0;0
6.0286384669427857;0.0038268343236509488;0;0;0;0;0
6.0356485116717895;0.0029028467725445779;0;0;0;0;0
6.0426585564007924;0.0019509032201614129;0;0;0;0;0
6.0496686011297962;0.00098017140329563555;0;0;0;0;0
6.0566786458587991;6.8592600364983554e-17;0;0;0;0;0
6.063688690587802;-0.00098017140329549916;0;0;0;0;0
6.0706987353168058;-0.0019509032201612787;0;0;0;0;0
6.0777087800458087;-0.0029028467725445823;0;0;0;0;0
6.0847188247748125;-0.0038268343236509536;0;0;0;0;0
6.0917288695038154;-0.0047139673682599957;0;0;0;0;0
6.0987389142328183;-0.0055557023301960077;0;0;0;0;0
6.1057489589618221;-0.0063439328416364116;0;0;0;0;0
6.112759003690825;-0.0070710678118654086;0;0;0;0;0
6.1197690484198279;-0.0077301045336272845;0;0;0;0;0
6.1267790931488317;-0.0083146961230254352;0;0;0;0;0
6.1337891378778346;-0.0088192126434835181;0;0;0;0;0
6.1407991826068375;-0.0092387953251128266;0;0;0;0;0
6.1478092273358413;-0.0095694033573220875;0;0;0;0;0
6.1548192720648442;-0.0098078528040322962;0;0;0;0;0
6.161829316793848;-0.0099518472667219759;0;0;0;0;0
6.168839361522851;-0.01;0;0;0;0;0
6.1758494062518539;-0.0099518472667219707;0;0;0;0;0
6.1828594509808577;-0.0098078528040323153;0;0;0;0;0
6.1898694957098606;-0.009569403357322117;0;0;0;0;0
6.1968795404388644;-0.0092387953251128647;0;0;0;0;0
6.2038895851678673;-0.0088192126434835667;0;0;0;0;0
6.2108996298968702;-0.0083146961230254925;0;0;0;0;0
6.217909674625874;-0.0077301045336273504;0;0;0;0;0
6.2249197193548769;-0.0070710678118654805;0;0;0;0;0
6.2319297640838798;-0.0063439328416364906;0;0;0;0;0
6.2389398088128836;-0.0055557023301959756;0;0;0;0;0
6.2459498535418865;-0.0047139673682599602;0;0;0;0;0
6.2529598982708894;-0.0038268343236510485;0;0;0;0;0
6.2599699429998932;-0.0029028467725446812;0;0;0;0;0
6.2669799877288961;-0.0019509032201613793;0;0;0;0;0
6.2739900324578999;-0.00098017140329560151;0;0;0;0;0
6.2810000771869028;-3.4290110376125888e-17;0;0;0;0;0
6.2880101219159057;0.0009801714032955332;0;0;0;0;0
6.2950201666449095;0.0019509032201613123;0;0;0;0;0
6.3020302113739124;0.0029028467725446152;0;0;0;0;0
6.3090402561029162;0.0038268343236509852;0;0;0;0;0
6.3160503008319191;0.0047139673682599003;0;0;0;0;0
6.323060345560922;0.0055557023301959175;0;0;0;0;0
6.3300703902899258;0.0063439328416364385;0;0;0;0;0
6.3370804350189287;0.0070710678118654328;0;0;0;0;0
6.3440904797479316;0.0077301045336273053;0;0;0;0;0
6.3511005244769354;0.0083146961230254543;0;0;0;0;0
6.3581105692059383;0.0088192126434835337;0;0;0;0;0
6.3651206139349412;0.0092387953251128387;0;0;0;0;0
6.372130658663945;0.0095694033573220979;0;0;0;0;0
6.3791407033929479;0.0098078528040323031;0;0;0;0;0
6.3861507481219517;0.0099518472667219637;0;0;0;0;0
6.3931607928509546;0.01;0;0;0;0;0
6.4001708375799575;0.0099518472667219811;0;0;0;0;0
6.4071808823089613;0.0098078528040323083;0;0;0;0;0
6.4141909270379642;0.0095694033573221066;0;0;0;0;0
6.421200971766968;0.0092387953251128526;0;0;0;0;0
6.4282110164959709;0.0088192126434835493;0;0;0;0;0
6.4352210612249738;0.0083146961230254734;0;0;0;0;0
6.4422311059539776;0.0077301045336273279;0;0;0;0;0
6.4492411506829805;0.0070710678118654563;0;0;0;0;0
6.4562511954119834;0.0063439328416364637;0;0;0;0;0
6.4632612401409872;0.0055557023301960641;0;0;0;0;0
6.4702712848699901;0.0047139673682600556;0;0;0;0;0
6.4772813295989931;0.0038268343236510169;0;0;0;0;0
6.4842913743279968;0.0029028467725446478;0;0;0;0;0
6.4913014190569998;0.0019509032201613459;0;0;0;0;0
6.4983114637860036;0.00098017140329556725;0;0;0;0;0
6.5053215085150065;-1.2379612731767154e-20;0;0;0;0;0
6.5123315532440094;-0.00098017140329556725;0;0;0;0;0
6.5193415979730132;-0.0019509032201613459;0;0;0;0;0
6.5263516427020161;-0.0029028467725445125;0;0;0;0;0
6.5333616874310199;-0.0038268343236508851;0;0;0;0;0
6.5403717321600228;-0.0047139673682599307;0;0;0;0;0
6.5473817768890257;-0.0055557023301959461;0;0;0;0;0
6.5543918216180295;-0.0063439328416364637;0;0;0;0;0
6.5614018663470324;-0.0070710678118654563;0;0;0;0;0
6.5684119110760353;-0.0077301045336273279;0;0;0;0;0
6.5754219558050391;-0.0083146961230254734;0;0;0;0;0
6.582432000534042;-0.0088192126434835493;0;0;0;0;0
6.5894420452630449;-0.0092387953251128526;0;0;0;0;0
6.5964520899920487;-0.0095694033573220667;0;0;0;0;0
6.6034621347210516;-0.0098078528040322806;0;0;0;0;0
6.6104721794500554;-0.0099518472667219672;0;0;0;0;0
6.6174822241790583;-0.01;0;0;0;0;0
6.6244922689080612;-0.0099518472667219776;0;0;0;0;0
6.631502313637065;-0.0098078528040323031;0;0;0;0;0
6.6385123583660679;-0.0095694033573220979;0;0;0;0;0
6.6455224030950717;-0.0092387953251128387;0;0;0;0;0
6.6525324478240746;-0.0088192126434835337;0;0;0;0;0
6.6595424925530775;-0.0083146961230254543;0;0;0;0;0
6.6665525372820813;-0.0077301045336273964;0;0;0;0;0
6.6735625820110842;-0.0070710678118655326;0;0;0;0;0
6.6805726267400871;-0.006343932841636547;0;0;0;0;0
6.6875826714690909;-0.0055557023301960363;0;0;0;0;0
6.6945927161980938;-0.0047139673682600252;0;0;0;0;0
6.7016027609270967;-0.0038268343236509852;0;0;0;0;0
6.7086128056561005;-0.0029028467725446152;0;0;0;0;0
6.7156228503851034;-0.0019509032201613123;0;0;0;0;0
6.7226328951141072;-0.0009801714032955332;0;0;0;0;0
6.7296429398431101;3.4314869601589425e-17;0;0;0;0;0
6.736652984572113;0.00098017140329546013;0;0;0;0;0
6.7436630293011168;0.0019509032201612401;0;0;0;0;0
6.7506730740301197;0.002902846772544545;0;0;0;0;0
6.7576831187591235;0.0038268343236509171;0;0;0;0;0
6.7646931634881264;0.0047139673682599602;0;0;0;0;0
6.7717032082171293;0.0055557023301959756;0;0;0;0;0
6.7787132529461331;0.0063439328416364906;0;0;0;0;0
6.785723297675136;0.0070710678118654805;0;0;0;0;0
6.792733342404139;0.0077301045336273504;0;0;0;0;0
6.7997433871331427;0.0083146961230254144;0;0;0;0;0
6.8067534318621457;0.008819212643483499;0;0;0;0;0
6.8137634765911486;0.009238795325112811;0;0;0;0;0
6.8207735213201524;0.0095694033573220771;0;0;0;0;0
6.8277835660491553;0.0098078528040322875;0;0;0;0;0
6.8347936107781591;0.0099518472667219707;0;0;0;0;0
6.841803655507162;0.01;0;0;0;0;0
6.8488137002361649;0.0099518472667219759;0;0;0;0;0
6.8558237449651687;0.0098078528040322962;0;0;0;0;0
6.8628337896941716;0.0095694033573220875;0;0;0;0;0
6.8698438344231754;0.0092387953251128804;0;0;0;0;0
6.8768538791521783;0.008819212643483584;0;0;0;0;0
6.8838639238811812;0.0083146961230255133;0;0;0;0;0
6.890873968610185;0.0077301045336273747;0;0;0;0;0
6.8978840133391879;0.0070710678118655083;0;0;0;0;0
6.9048940580681908;0.0063439328416365218;0;0;0;0;0
6.9119041027971946;0.0055557023301960077;0;0;0;0;0
6.9189141475261975;0.0047139673682599957;0;0;0;0;0
6.9259241922552004;0.0038268343236509536;0;0;0;0;0
6.9329342369842042;0.0029028467725445823;0;0;0;0;0
6.9399442817132071;0.0019509032201614179;0;0;0;0;0
6.9469543264422109;0.00098017140329564054;0;0;0;0;0
6.9539643711712138;7.3491187561572956e-17;0;0;0;0;0
6.9609744159002167;-0.00098017140329549417;0;0;0;0;0
6.9679844606292205;-0.0019509032201612737;0;0;0;0;0
6.9749945053582234;-0.0029028467725445779;0;0;0;0;0
6.9820045500872272;-0.0038268343236509488;0;0;0;0;0
6.9890145948162301;-0.0047139673682599905;0;0;0;0;0
6.996024639545233;-0.0055557023301960034;0;0;0;0;0
7.0030346842742368;-0.0063439328416364073;0;0;0;0;0
7.0100447290032397;-0.0070710678118654051;0;0;0;0;0
7.0170547737322426;-0.007730104533627281;0;0;0;0;0
7.0240648184612464;-0.0083146961230254317;0;0;0;0;0
7.0310748631902493;-0.0088192126434835146;0;0;0;0;0
7.0380849079192522;-0.0092387953251128248;0;0;0;0;0
7.045094952648256;-0.0095694033573220857;0;0;0;0;0
7.0521049973772589;-0.0098078528040322945;0;0;0;0;0
7.0591150421062627;-0.0099518472667219741;0;0;0;0;0
7.0661250868352656;-0.01;0;0;0;0;0
7.0731351315642685;-0.0099518472667219724;0;0;0;0;0
7.0801451762932723;-0.009807852804032317;0;0;0;0;0
7.0871552210222752;-0.0095694033573221187;0;0;0;0;0
7.094165265751279;-0.0092387953251128682;0;0;0;0;0
7.1011753104802819;-0.0088192126434835684;0;0;0;0;0
7.1081853552092849;-0.0083146961230254942;0;0;0;0;0
7.1151953999382886;-0.0077301045336273522;0;0;0;0;0
7.1222054446672916;-0.007071067811865484;0;0;0;0;0
7.1292154893962945;-0.0063439328416364949;0;0;0;0;0
7.1362255341252983;-0.0055557023301959782;0;0;0;0;0
7.1432355788543012;-0.0047139673682599645;0;0;0;0;0
7.1502456235833041;-0.0038268343236510529;0;0;0;0;0
7.1572556683123079;-0.0029028467725446855;0;0;0;0;0
7.1642657130413108;-0.0019509032201613841;0;0;0;0;0
7.1712757577703146;-0.00098017140329560628;0;0;0;0;0
7.1782858024993175;-3.9188697572715302e-17;0;0;0;0;0
7.1852958472283204;0.00098017140329552843;0;0;0;0;0
7.1923058919573242;0.0019509032201613075;0;0;0;0;0
7.1993159366863271;0.0029028467725446105;0;0;0;0;0
7.2063259814153309;0.0038268343236509805;0;0;0;0;0
7.2133360261443338;0.004713967368259896;0;0;0;0;0
7.2203460708733367;0.0055557023301959141;0;0;0;0;0
7.2273561156023405;0.0063439328416364342;0;0;0;0;0
7.2343661603313434;0.0070710678118654285;0;0;0;0;0
7.2413762050603463;0.0077301045336273036;0;0;0;0;0
7.2483862497893501;0.0083146961230254508;0;0;0;0;0
7.255396294518353;0.008819212643483532;0;0;0;0;0
7.2624063392473559;0.009238795325112837;0;0;0;0;0
7.2694163839763597;0.0095694033573220962;0;0;0;0;0
7.2764264287053626;0.0098078528040323014;0;0;0;0;0
7.2834364734343664;0.0099518472667219637;0;0;0;0;0
7.2904465181633693;0.01;0;0;0;0;0
7.2974565628923722;0.0099518472667219811;0;0;0;0;0
7.304466607621376;0.0098078528040323101;0;0;0;0;0
7.3114766523503789;0.0095694033573221083;0;0;0;0;0
7.3184866970793827;0.0092387953251128543;0;0;0;0;0
7.3254967418083856;0.0088192126434835511;0;0;0;0;0
7.3325067865373885;0.0083146961230254751;0;0;0;0;0
7.3395168312663923;0.0077301045336273314;0;0;0;0;0
7.3465268759953952;0.0070710678118654606;0;0;0;0;0
7.3535369207243981;0.006343932841636468;0;0;0;0;0
7.3605469654534019;0.0055557023301960684;0;0;0;0;0
7.3675570101824048;0.0047139673682600599;0;0;0;0;0
7.3745670549114077;0.0038268343236510212;0;0;0;0;0
7.3815770996404115;0.002902846772544653;0;0;0;0;0
7.3885871443694144;0.0019509032201613504;0;0;0;0;0
7.3955971890984182;0.00098017140329557224;0;0;0;0;0
7.4026072338274211;4.8862075838576457e-18;0;0;0;0;0
7.409617278556424;-0.00098017140329556248;0;0;0;0;0
7.4166273232854278;-0.0019509032201613411;0;0;0;0;0
7.4236373680144307;-0.0029028467725445073;0;0;0;0;0
7.4306474127434345;-0.0038268343236508807;0;0;0;0;0
7.4376574574724375;-0.0047139673682599264;0;0;0;0;0
7.4446675022014404;-0.0055557023301959418;0;0;0;0;0
7.4516775469304442;-0.0063439328416364602;0;0;0;0;0
7.4586875916594471;-0.0070710678118654528;0;0;0;0;0
7.46569763638845;-0.0077301045336273244;0;0;0;0;0
7.4727076811174538;-0.0083146961230254699;0;0;0;0;0
7.4797177258464567;-0.0088192126434835476;0;0;0;0;0
7.4867277705754596;-0.0092387953251128509;0;0;0;0;0
7.4937378153044634;-0.0095694033573220632;0;0;0;0;0
7.5007478600334663;-0.0098078528040322806;0;0;0;0;0
7.5077579047624701;-0.0099518472667219672;0;0;0;0;0
7.514767949491473;-0.01;0;0;0;0;0
7.5217779942204759;-0.0099518472667219776;0;0;0;0;0
7.5287880389494797;-0.0098078528040323031;0;0;0;0;0
7.5357980836784826;-0.0095694033573220979;0;0;0;0;0
7.5428081284074864;-0.0092387953251128405;0;0;0;0;0
7.5498181731364893;-0.0088192126434835354;0;0;0;0;0
7.5568282178654922;-0.0083146961230254578;0;0;0;0;0
7.563838262594496;-0.007730104533627399;0;0;0;0;0
7.5708483073234989;-0.0070710678118655361;0;0;0;0;0
7.5778583520525018;-0.0063439328416365513;0;0;0;0;0
7.5848683967815056;-0.0055557023301960398;0;0;0;0;0
7.5918784415105085;-0.0047139673682600296;0;0;0;0;0
7.5988884862395114;-0.0038268343236509896;0;0;0;0;0
7.6058985309685152;-0.00290284677254462;0;0;0;0;0
7.6129085756975181;-0.0019509032201613168;0;0;0;0;0
7.6199186204265219;-0.00098017140329553797;0;0;0;0;0
7.6269286651555248;2.9416282405000011e-17;0;0;0;0;0
7.6339387098845277;0.00098017140329545514;0;0;0;0;0
7.6409487546135315;0.0019509032201612353;0;0;0;0;0
7.6479587993425344;0.0029028467725445402;0;0;0;0;0
7.6549688440715382;0.0038268343236509124;0;0;0;0;0
7.6619788888005411;0.0047139673682599567;0;0;0;0;0
7.668988933529544;0.0055557023301959704;0;0;0;0;0
7.6759989782585478;0.0063439328416364871;0;0;0;0;0
7.6830090229875507;0.0070710678118654771;0;0;0;0;0
7.6900190677165536;0.007730104533627347;0;0;0;0;0
7.6970291124455574;0.0083146961230254109;0;0;0;0;0
7.7040391571745603;0.0088192126434834955;0;0;0;0;0
7.7110492019035632;0.0092387953251128092;0;0;0;0;0
7.718059246632567;0.0095694033573220736;0;0;0;0;0
7.7250692913615699;0.0098078528040322875;0;0;0;0;0
7.7320793360905737;0.0099518472667219707;0;0;0;0;0
7.7390893808195766;0.01;0;0;0;0;0
7.7460994255485796;0.0099518472667219759;0;0;0;0;0
7.7531094702775833;0.0098078528040322962;0;0;0;0;0
7.7601195150065863;0.0095694033573220892;0;0;0;0;0
7.76712955973559;0.0092387953251128821;0;0;0;0;0
7.774139604464593;0.0088192126434835857;0;0;0;0;0
7.7811496491935959;0.0083146961230255167;0;0;0;0;0
7.7881596939225997;0.0077301045336273782;0;0;0;0;0
7.7951697386516026;0.0070710678118655118;0;0;0;0;0
7.8021797833806055;0.0063439328416365253;0;0;0;0;0
7.8091898281096093;0.0055557023301960121;0;0;0;0;0
7.8161998728386122;0.0047139673682599992;0;0;0;0;0
7.8232099175676151;0.0038268343236509579;0;0;0;0;0
7.8302199622966189;0.0029028467725445875;0;0;0;0;0
7.8372300070256218;0.0019509032201614227;0;0;0;0;0
7.8442400517546256;0.00098017140329564531;0;0;0;0;0
7.8512500964836285;7.838977475816237e-17;0;0;0;0;0
7.8582601412126314;-0.0009801714032954894;0;0;0;0;0
7.8652701859416352;-0.0019509032201612689;0;0;0;0;0
7.8722802306706381;-0.0029028467725445727;0;0;0;0;0
7.8792902753996419;-0.003826834323650944;0;0;0;0;0
7.8863003201286448;-0.0047139673682599862;0;0;0;0;0
7.8933103648576477;-0.0055557023301959999;0;0;0;0;0
7.9003204095866515;-0.006343932841636514;0;0;0;0;0
7.9073304543156544;-0.0070710678118654008;0;0;0;0;0
7.9143404990446573;-0.0077301045336272776;0;0;0;0;0
7.9213505437736611;-0.00831469612302543;0;0;0;0;0
7.928360588502664;-0.0088192126434835129;0;0;0;0;0
7.9353706332316669;-0.0092387953251128214;0;0;0;0;0
7.9423806779606707;-0.009569403357322084;0;0;0;0;0
7.9493907226896736;-0.0098078528040322945;0;0;0;0;0
7.9564007674186774;-0.0099518472667219741;0;0;0;0;0
7.9634108121476803;-0.01;0;0;0;0;0
7.9704208568766832;-0.0099518472667219724;0;0;0;0;0
7.977430901605687;-0.009807852804032317;0;0;0;0;0
7.9844409463346899;-0.0095694033573221187;0;0;0;0;0
7.9914509910636937;-0.0092387953251128682;0;0;0;0;0
7.9984610357926966;-0.0088192126434835701;0;0;0;0;0
8.0054710805216995;-0.0083146961230254977;0;0;0;0;0
8.0124811252507033;-0.0077301045336273556;0;0;0;0;0
8.0194911699797053;-0.0070710678118655881;0;0;0;0;0
8.0265012147087091;-0.0063439328416364984;0;0;0;0;0
8.0335112594377129;-0.0055557023301959834;0;0;0;0;0
8.0405213041667167;-0.0047139673682599697;0;0;0;0;0
8.0475313488957188;-0.0038268343236510572;0;0;0;0;0
8.0545413936247225;-0.0029028467725446898;0;0;0;0;0
8.0615514383537263;-0.0019509032201612498;0;0;0;0;0
8.0685614830827284;-0.00098017140329575265;0;0;0;0;0
8.0755715278117322;-4.4087284769304716e-17;0;0;0;0;0
8.0825815725407359;0.00098017140329566483;0;0;0;0;0
8.089591617269738;0.0019509032201611631;0;0;0;0;0
8.0966016619987418;0.0029028467725446057;0;0;0;0;0
8.1036117067277456;0.0038268343236509761;0;0;0;0;0
8.1106217514567476;0.0047139673682598917;0;0;0;0;0
8.1176317961857514;0.0055557023301959097;0;0;0;0;0
8.1246418409147552;0.0063439328416364307;0;0;0;0;0
8.131651885643759;0.0070710678118655257;0;0;0;0;0
8.138661930372761;0.0077301045336273001;0;0;0;0;0
8.1456719751017648;0.0083146961230254491;0;0;0;0;0
8.1526820198307686;0.0088192126434835962;0;0;0;0;0
8.1596920645597706;0.0092387953251128353;0;0;0;0;0
8.1667021092887744;0.0095694033573220944;0;0;0;0;0
8.1737121540177782;0.0098078528040323014;0;0;0;0;0
8.1807221987467802;0.009951847266721962;0;0;0;0;0
8.187732243475784;0.01;0;0;0;0;0
8.1947422882047878;0.0099518472667219689;0;0;0;0;0
8.2017523329337898;0.0098078528040323396;0;0;0;0;0
8.2087623776627936;0.00956940335732211;0;0;0;0;0
8.2157724223917974;0.0092387953251128561;0;0;0;0;0
8.2227824671207994;0.0088192126434836222;0;0;0;0;0
8.2297925118498032;0.0083146961230254786;0;0;0;0;0
8.236802556578807;0.0077301045336273348;0;0;0;0;0
8.243812601307809;0.0070710678118655638;0;0;0;0;0
8.2508226460368128;0.0063439328416364715;0;0;0;0;0
8.2578326907658166;0.0055557023301960728;0;0;0;0;0
8.2648427354948204;0.0047139673682599385;0;0;0;0;0
8.2718527802238224;0.0038268343236510256;0;0;0;0;0
8.2788628249528262;0.0029028467725446573;0;0;0;0;0
8.28587286968183;0.001950903220161216;0;0;0;0;0
8.292882914410832;0.00098017140329571839;0;0;0;0;0
8.2998929591398358;9.7847947804470584e-18;0;0;0;0;0
8.3069030038688396;-0.00098017140329569909;0;0;0;0;0
8.3139130485978416;-0.0019509032201611967;0;0;0;0;0
8.3209230933268454;-0.0029028467725445029;0;0;0;0;0
8.3279331380558492;-0.0038268343236508764;0;0;0;0;0
8.3349431827848512;-0.0047139673682597963;0;0;0;0;0
8.341953227513855;-0.0055557023301959383;0;0;0;0;0
8.3489632722428588;-0.0063439328416364576;0;0;0;0;0
8.3559733169718626;-0.0070710678118655499;0;0;0;0;0
8.3629833617008646;-0.0077301045336273209;0;0;0;0;0
8.3699934064298684;-0.0083146961230254682;0;0;0;0;0
8.3770034511588722;-0.0088192126434836118;0;0;0;0;0
8.3840134958878743;-0.0092387953251128491;0;0;0;0;0
8.3910235406168781;-0.0095694033573220632;0;0;0;0;0
8.3980335853458818;-0.0098078528040323083;0;0;0;0;0
8.4050436300748839;-0.0099518472667219533;0;0;0;0;0
8.4120536748038877;-0.01;0;0;0;0;0
8.4190637195328915;-0.0099518472667219655;0;0;0;0;0
8.4260737642618935;-0.0098078528040323326;0;0;0;0;0
8.4330838089908973;-0.0095694033573220996;0;0;0;0;0
8.4400938537199011;-0.0092387953251128439;0;0;0;0;0
8.4471038984489031;-0.0088192126434836048;0;0;0;0;0
8.4541139431779069;-0.0083146961230254595;0;0;0;0;0
8.4611239879069107;-0.0077301045336274025;0;0;0;0;0
8.4681340326359127;-0.0070710678118656401;0;0;0;0;0
8.4751440773649165;-0.0063439328416365548;0;0;0;0;0
8.4821541220939203;-0.0055557023301960442;0;0;0;0;0
8.4891641668229241;-0.004713967368259909;0;0;0;0;0
8.4961742115519261;-0.0038268343236509939;0;0;0;0;0
8.5031842562809299;-0.0029028467725446244;0;0;0;0;0
8.5101943010099337;-0.0019509032201611824;0;0;0;0;0
8.5172043457389357;-0.00098017140329568434;0;0;0;0;0
8.5242143904679395;2.45176952084106e-17;0;0;0;0;0
8.5312244351969433;0.00098017140329559175;0;0;0;0;0
8.5382344799259453;0.0019509032201610911;0;0;0;0;0
8.5452445246549491;0.0029028467725445354;0;0;0;0;0
8.5522545693839529;0.003826834323650908;0;0;0;0;0
8.5592646141129549;0.0047139673682598266;0;0;0;0;0
8.5662746588419587;0.0055557023301959661;0;0;0;0;0
8.5732847035709625;0.0063439328416364828;0;0;0;0;0
8.5802947482999663;0.0070710678118655751;0;0;0;0;0
8.5873047930289683;0.0077301045336273435;0;0;0;0;0
8.5943148377579721;0.0083146961230254075;0;0;0;0;0
8.6013248824869759;0.0088192126434835615;0;0;0;0;0
8.6083349272159779;0.0092387953251128075;0;0;0;0;0
8.6153449719449817;0.0095694033573220736;0;0;0;0;0
8.6223550166739855;0.0098078528040323153;0;0;0;0;0
8.6293650614029875;0.0099518472667219568;0;0;0;0;0
8.6363751061319913;0.01;0;0;0;0;0
8.6433851508609951;0.009951847266721962;0;0;0;0;0
8.6503951955899971;0.0098078528040323257;0;0;0;0;0
8.6574052403190009;0.0095694033573220892;0;0;0;0;0
8.6644152850480047;0.0092387953251128838;0;0;0;0;0
8.6714253297770068;0.0088192126434836569;0;0;0;0;0
8.6784353745060105;0.0083146961230255185;0;0;0;0;0
8.6854454192350143;0.0077301045336273808;0;0;0;0;0
8.6924554639640164;0.0070710678118656159;0;0;0;0;0
8.6994655086930202;0.0063439328416365279;0;0;0;0;0
8.7064755534220239;0.0055557023301960155;0;0;0;0;0
8.7134855981510277;0.0047139673682598787;0;0;0;0;0
8.7204956428800298;0.0038268343236509622;0;0;0;0;0
8.7275056876090336;0.0029028467725445918;0;0;0;0;0
8.7345157323380374;0.001950903220161288;0;0;0;0;0
8.7415257770670394;0.00098017140329579168;0;0;0;0;0
8.7485358217960432;8.3288361954751784e-17;0;0;0;0;0
8.755545866525047;-0.00098017140329562579;0;0;0;0;0
8.762555911254049;-0.0019509032201611249;0;0;0;0;0
8.7695659559830528;-0.0029028467725445684;0;0;0;0;0
8.7765760007120566;-0.0038268343236509397;0;0;0;0;0
8.7835860454410586;-0.004713967368259857;0;0;0;0;0
8.7905960901700624;-0.0055557023301959956;0;0;0;0;0
8.7976061348990662;-0.0063439328416365097;0;0;0;0;0
8.80461617962807;-0.0070710678118654979;0;0;0;0;0
8.811626224357072;-0.007730104533627275;0;0;0;0;0
8.8186362690860758;-0.0083146961230254265;0;0;0;0;0
8.8256463138150796;-0.0088192126434835771;0;0;0;0;0
8.8326563585440816;-0.0092387953251128214;0;0;0;0;0
8.8396664032730854;-0.0095694033573220823;0;0;0;0;0
8.8466764480020892;-0.0098078528040323205;0;0;0;0;0
8.8536864927310912;-0.0099518472667219603;0;0;0;0;0
8.860696537460095;-0.01;0;0;0;0;0
8.8677065821890988;-0.0099518472667219724;0;0;0;0;0
8.8747166269181008;-0.0098078528040323187;0;0;0;0;0
8.8817266716471046;-0.0095694033573221222;0;0;0;0;0
8.8887367163761084;-0.0092387953251128717;0;0;0;0;0
8.8957467611051104;-0.0088192126434836395;0;0;0;0;0
8.9027568058341142;-0.0083146961230254994;0;0;0;0;0
8.909766850563118;-0.0077301045336273591;0;0;0;0;0
8.91677689529212;-0.0070710678118655916;0;0;0;0;0
8.9237869400211238;-0.0063439328416365027;0;0;0;0;0
8.9307969847501276;-0.0055557023301959878;0;0;0;0;0
8.9378070294791314;-0.0047139673682599741;0;0;0;0;0
8.9448170742081334;-0.0038268343236510616;0;0;0;0;0
8.9518271189371372;-0.002902846772544695;0;0;0;0;0
8.958837163666141;-0.0019509032201612544;0;0;0;0;0
8.965847208395143;-0.00098017140329575742;0;0;0;0;0
8.9728572531241468;-4.8985871965894131e-17;0;0;0;0;0
8.9798672978531506;0.00098017140329566006;0;0;0;0;0
8.9868773425821527;0.0019509032201611585;0;0;0;0;0
8.9938873873111564;0.0029028467725446014;0;0;0;0;0
9.0008974320401602;0.0038268343236509714;0;0;0;0;0
9.0079074767691623;0.0047139673682598873;0;0;0;0;0
9.0149175214981661;0.0055557023301959054;0;0;0;0;0
9.0219275662271698;0.0063439328416364264;0;0;0;0;0
9.0289376109561736;0.0070710678118655222;0;0;0;0;0
9.0359476556851757;0.0077301045336272967;0;0;0;0;0
9.0429577004141795;0.0083146961230254456;0;0;0;0;0
9.0499677451431833;0.0088192126434835944;0;0;0;0;0
9.0569777898721853;0.0092387953251128335;0;0;0;0;0
9.0639878346011891;0.0095694033573220927;0;0;0;0;0
9.0709978793301929;0.0098078528040322997;0;0;0;0;0
9.0780079240591949;0.009951847266721962;0;0;0;0;0
9.0850179687881987;0.01;0;0;0;0;0
9.0920280135172025;0.0099518472667219689;0;0;0;0;0
9.0990380582462045;0.0098078528040323396;0;0;0;0;0
9.1060481029752083;0.0095694033573221118;0;0;0;0;0
9.1130581477042121;0.0092387953251128578;0;0;0;0;0
9.1200681924332141;0.0088192126434836239;0;0;0;0;0
9.1270782371622179;0.0083146961230254821;0;0;0;0;0
9.1340882818912217;0.0077301045336273366;0;0;0;0;0
9.1410983266202237;0.0070710678118655673;0;0;0;0;0
9.1481083713492275;0.0063439328416364758;0;0;0;0;0
9.1551184160782313;0.0055557023301959583;0;0;0;0;0
9.1621284608072351;0.0047139673682598179;0;0;0;0;0
9.1691385055362371;0.0038268343236508989;0;0;0;0;0
9.1761485502652409;0.0029028467725445263;0;0;0;0;0
9.1831585949942447;0.0019509032201613602;0;0;0;0;0
9.1901686397232467;0.00098017140329586475;0;0;0;0;0
9.1971786844522505;1.5679192912905649e-16;0;0;0;0;0
9.2041887291812543;-0.00098017140329555272;0;0;0;0;0
9.2111987739102563;-0.0019509032201610527;0;0;0;0;0
9.2182088186392601;-0.0029028467725444977;0;0;0;0;0
9.2252188633682639;-0.0038268343236508716;0;0;0;0;0
9.2322289080972659;-0.0047139673682597919;0;0;0;0;0
9.2392389528262697;-0.005555702330195934;0;0;0;0;0
9.2462489975552735;-0.0063439328416364524;0;0;0;0;0
9.2532590422842773;-0.0070710678118655473;0;0;0;0;0
9.2602690870132793;-0.0077301045336273192;0;0;0;0;0
9.2672791317422831;-0.0083146961230254647;0;0;0;0;0
9.2742891764712869;-0.00881921264348361;0;0;0;0;0
9.2812992212002889;-0.0092387953251128457;0;0;0;0;0
9.2883092659292927;-0.0095694033573221031;0;0;0;0;0
9.2953193106582965;-0.0098078528040323344;0;0;0;0;0
9.3023293553872985;-0.0099518472667219655;0;0;0;0;0
9.3093394001163023;-0.01;0;0;0;0;0
9.3163494448453061;-0.0099518472667219793;0;0;0;0;0
9.3233594895743082;-0.0098078528040323049;0;0;0;0;0
9.330369534303312;-0.009569403357322143;0;0;0;0;0
9.3373795790323157;-0.0092387953251128994;0;0;0;0;0
9.3443896237613178;-0.0088192126434836742;0;0;0;0;0
9.3513996684903216;-0.008314696123025541;0;0;0;0;0
9.3584097132193254;-0.0077301045336274059;0;0;0;0;0
9.3654197579483274;-0.0070710678118656436;0;0;0;0;0
9.3724298026773312;-0.0063439328416365591;0;0;0;0;0
9.379439847406335;-0.0055557023301960485;0;0;0;0;0
9.3864498921353388;-0.0047139673682599133;0;0;0;0;0
9.3934599368643408;-0.0038268343236509982;0;0;0;0;0
9.4004699815933446;-0.0029028467725446296;0;0;0;0;0
9.4074800263223484;-0.0019509032201611869;0;0;0;0;0
9.4144900710513504;-0.00098017140329568911;0;0;0;0;0
9.4215001157803542;1.9619108011821185e-17;0;0;0;0;0
9.428510160509358;0.00098017140329572836;0;0;0;0;0
9.43552020523836;0.0019509032201612255;0;0;0;0;0
9.4425302499673638;0.0029028467725446669;0;0;0;0;0
9.4495402946963676;0.0038268343236510351;0;0;0;0;0
