#Time;LinearAccX;LinearAccY;LinearAccZ;AngularAccX;AngularAccY;AngularAccZ
0;0;0;0;0;0;0
0.032457781242445569;0.00098017140329560628;0;0;0;0;0
0.064915562484891137;0.0019509032201612828;0;0;0;0;0
0.097373343727336706;0.0029028467725446239;0;0;0;0;0
0.12983112496978227;0.0038268343236508981;0;0;0;0;0
0.16228890621222786;0.0047139673682599775;0;0;0;0;0
0.19474668745467341;0.0055557023301960233;0;0;0;0;0
0.22720446869711897;0.006343932841636455;0;0;0;0;0
0.25966224993956455;0.0070710678118654762;0;0;0;0;0
0.29212003118201013;0.0077301045336273704;0;0;0;0;0
0.32457781242445571;0.0083146961230254543;0;0;0;0;0
0.35703559366690124;0.0088192126434835511;0;0;0;0;0
0.38949337490934682;0.0092387953251128682;0;0;0;0;0
0.42195115615179241;0.0095694033573220892;0;0;0;0;0
0.45440893739423793;0.0098078528040323049;0;0;0;0;0
0.48686671863668352;0.0099518472667219689;0;0;0;0;0
0.5193244998791291;0.01;0;0;0;0;0
0.55178228112157468;0.0099518472667219689;0;0;0;0;0
0.58424006236402026;0.0098078528040323049;0;0;0;0;0
0.61669784360646585;0.0095694033573220892;0;0;0;0;0
0.64915562484891143;0.0092387953251128665;0;0;0;0;0
0.6816134060913569;0.0088192126434835511;0;0;0;0;0
0.71407118733380248;0.0083146961230254508;0;0;0;0;0
0.74652896857624806;0.0077301045336273678;0;0;0;0;0
0.77898674981869365;0.0070710678118654727;0;0;0;0;0
0.81144453106113923;0.006343932841636455;0;0;0;0;0
0.84390231230358481;0.0055557023301960216;0;0;0;0;0
0.87636009354603039;0.0047139673682599741;0;0;0;0;0
0.90881787478847587;0.0038268343236508989;0;0;0;0;0
0.94127565603092145;0.0029028467725446239;0;0;0;0;0
0.97373343727336703;0.0019509032201612817;0;0;0;0;0
1.0061912185158126;0.00098017140329560389;0;0;0;0;0
1.0386489997582582;-3.2162452993532734e-18;0;0;0;0;0
1.0711067810007038;-0.0009801714032956104;0;0;0;0;0
1.1035645622431494;-0.0019509032201612837;0;0;0;0;0
1.1360223434855949;-0.0029028467725446257;0;0;0;0;0
1.1684801247280405;-0.0038268343236509007;0;0;0;0;0
1.2009379059704861;-0.0047139673682599801;0;0;0;0;0
1.2333956872129317;-0.0055557023301960259;0;0;0;0;0
1.2658534684553773;-0.0063439328416364594;0;0;0;0;0
1.2983112496978229;-0.0070710678118654805;0;0;0;0;0
1.3307690309402682;-0.0077301045336273669;0;0;0;0;0
1.3632268121827138;-0.0083146961230254526;0;0;0;0;0
1.3956845934251594;-0.0088192126434835493;0;0;0;0;0
1.428142374667605;-0.0092387953251128682;0;0;0;0;0
1.4606001559100505;-0.0095694033573220892;0;0;0;0;0
1.4930579371524961;-0.0098078528040323049;0;0;0;0;0
1.5255157183949417;-0.0099518472667219689;0;0;0;0;0
1.5579734996373873;-0.01;0;0;0;0;0
1.5904312808798329;-0.0099518472667219689;0;0;0;0;0
1.6228890621222785;-0.0098078528040323049;0;0;0;0;0
1.655346843364724;-0.0095694033573220875;0;0;0;0;0
1.6878046246071696;-0.0092387953251128665;0;0;0;0;0
1.7202624058496152;-0.0088192126434835458;0;0;0;0;0
1.7527201870920608;-0.0083146961230254508;0;0;0;0;0
1.7851779683345064;-0.0077301045336273634;0;0;0;0;0
1.8176357495769517;-0.0070710678118654771;0;0;0;0;0
1.8500935308193973;-0.0063439328416364524;0;0;0;0;0
1.8825513120618429;-0.0055557023301960216;0;0;0;0;0
1.9150090933042885;-0.0047139673682599715;0;0;0;0;0
1.9474668745467341;-0.0038268343236508959;0;0;0;0;0
1.9799246557891796;-0.0029028467725446252;0;0;0;0;0
2.0123824370316252;-0.0019509032201612787;0;0;0;0;0
2.044840218274071;-0.0009801714032955963;0;0;0;0;0
2.0772979995165164;6.4324905987065469e-18;0;0;0;0;0
2.1097557807589618;0.00098017140329560021;0;0;0;0;0
2.1422135620014076;0.001950903220161291;0;0;0;0;0
2.1746713432438529;0.00290284677254462;0;0;0;0;0
2.2071291244862987;0.0038268343236508994;0;0;0;0;0
2.2395869057287441;0.0047139673682599758;0;0;0;0;0
2.2720446869711899;0.0055557023301960251;0;0;0;0;0
2.3045024682136352;0.0063439328416364559;0;0;0;0;0
2.3369602494560811;0.0070710678118654788;0;0;0;0;0
2.3694180306985264;0.0077301045336273713;0;0;0;0;0
2.4018758119409722;0.0083146961230254578;0;0;0;0;0
2.4343335931834176;0.0088192126434835528;0;0;0;0;0
2.4667913744258634;0.0092387953251128717;0;0;0;0;0
2.4992491556683087;0.0095694033573220909;0;0;0;0;0
2.5317069369107545;0.0098078528040323066;0;0;0;0;0
2.5641647181531999;0.0099518472667219689;0;0;0;0;0
2.5966224993956457;0.01;0;0;0;0;0
2.6290802806380911;0.0099518472667219689;0;0;0;0;0
2.6615380618805364;0.0098078528040323066;0;0;0;0;0
2.6939958431229822;0.0095694033573220875;0;0;0;0;0
2.7264536243654276;0.0092387953251128682;0;0;0;0;0
2.7589114056078734;0.0088192126434835424;0;0;0;0;0
2.7913691868503188;0.008314696123025456;0;0;0;0;0
2.8238269680927646;0.0077301045336273643;0;0;0;0;0
2.8562847493352099;0.007071067811865471;0;0;0;0;0
2.8887425305776557;0.0063439328416364541;0;0;0;0;0
2.9212003118201011;0.0055557023301960233;0;0;0;0;0
2.9536580930625469;0.0047139673682599645;0;0;0;0;0
2.9861158743049923;0.003826834323650889;0;0;0;0;0
3.0185736555474381;0.0029028467725446178;0;0;0;0;0
3.0510314367898834;0.0019509032201612798;0;0;0;0;0
3.0834892180323292;0.00098017140329558872;0;0;0;0;0
3.1159469992747746;-1.4089627996560444e-17;0;0;0;0;0
3.1484047805172199;-0.00098017140329559891;0;0;0;0;0
3.1808625617596658;-0.0019509032201612899;0;0;0;0;0
3.2133203430021111;-0.0029028467725446278;0;0;0;0;0
3.2457781242445569;-0.0038268343236508985;0;0;0;0;0
3.2782359054870023;-0.0047139673682599741;0;0;0;0;0
3.3106936867294481;-0.005555702330196032;0;0;0;0;0
3.3431514679718934;-0.006343932841636462;0;0;0;0;0
3.3756092492143392;-0.0070710678118654788;0;0;0;0;0
3.4080670304567846;-0.0077301045336273713;0;0;0;0;0
3.4405248116992304;-0.0083146961230254612;0;0;0;0;0
3.4729825929416758;-0.0088192126434835563;0;0;0;0;0
3.5054403741841216;-0.0092387953251128717;0;0;0;0;0
3.5378981554265669;-0.0095694033573220909;0;0;0;0;0
3.5703559366690127;-0.0098078528040323083;0;0;0;0;0
3.6028137179114581;-0.0099518472667219689;0;0;0;0;0
3.6352714991539035;-0.01;0;0;0;0;0
3.6677292803963493;-0.0099518472667219689;0;0;0;0;0
3.7001870616387946;-0.0098078528040323031;0;0;0;0;0
3.7326448428812404;-0.0095694033573220875;0;0;0;0;0
3.7651026241236858;-0.0092387953251128682;0;0;0;0;0
3.7975604053661316;-0.0088192126434835441;0;0;0;0;0
3.830018186608577;-0.0083146961230254456;0;0;0;0;0
3.8624759678510228;-0.0077301045336273643;0;0;0;0;0
3.8949337490934681;-0.0070710678118654727;0;0;0;0;0
3.9273915303359139;-0.0063439328416364403;0;0;0;0;0
3.9598493115783593;-0.0055557023301960242;0;0;0;0;0
3.9923070928208051;-0.0047139673682599663;0;0;0;0;0
4.0247648740632505;-0.0038268343236508903;0;0;0;0;0
4.0572226553056963;-0.0029028467725446187;0;0;0;0;0
4.0896804365481421;-0.0019509032201612633;0;0;0;0;0
4.122138217790587;-0.00098017140329560758;0;0;0;0;0
4.1545959990330328;1.2864981197413094e-17;0;0;0;0;0
4.1870537802754786;0.00098017140329561539;0;0;0;0;0
4.2195115615179235;0.0019509032201612715;0;0;0;0;0
4.2519693427603693;0.0029028467725446261;0;0;0;0;0
4.2844271240028151;0.0038268343236509132;0;0;0;0;0
4.3168849052452609;0.0047139673682599888;0;0;0;0;0
4.3493426864877058;0.0055557023301960164;0;0;0;0;0
4.3818004677301516;0.0063439328416364602;0;0;0;0;0
4.4142582489725974;0.0070710678118654779;0;0;0;0;0
4.4467160302150432;0.0077301045336273808;0;0;0;0;0
4.4791738114574882;0.0083146961230254508;0;0;0;0;0
4.511631592699934;0.0088192126434835563;0;0;0;0;0
4.5440893739423798;0.0092387953251128717;0;0;0;0;0
4.5765471551848256;0.0095694033573220944;0;0;0;0;0
4.6090049364272705;0.0098078528040323049;0;0;0;0;0
4.6414627176697163;0.0099518472667219707;0;0;0;0;0
4.6739204989121621;0.01;0;0;0;0;0
4.706378280154607;0.0099518472667219689;0;0;0;0;0
4.7388360613970528;0.0098078528040323031;0;0;0;0;0
4.7712938426394986;0.0095694033573220892;0;0;0;0;0
4.8037516238819444;0.0092387953251128613;0;0;0;0;0
4.8362094051243893;0.0088192126434835528;0;0;0;0;0
4.8686671863668352;0.0083146961230254474;0;0;0;0;0
4.901124967609281;0.007730104533627366;0;0;0;0;0
4.9335827488517268;0.0070710678118654606;0;0;0;0;0
4.9660405300941717;0.006343932841636455;0;0;0;0;0
4.9984983113366175;0.0055557023301960112;0;0;0;0;0
5.0309560925790633;0.0047139673682599671;0;0;0;0;0
5.0634138738215091;0.0038268343236508746;0;0;0;0;0
5.095871655063954;0.00290284677254462;0;0;0;0;0
5.1283294363063998;0.0019509032201612821;0;0;0;0;0
5.1607872175488456;0.0009801714032955911;0;0;0;0;0
5.1932449987912914;-2.9403902792268245e-17;0;0;0;0;0
5.2257027800337363;-0.0009801714032956143;0;0;0;0;0
5.2581605612761821;-0.0019509032201612876;0;0;0;0;0
5.2906183425186279;-0.0029028467725446421;0;0;0;0;0
5.3230761237610729;-0.0038268343236508794;0;0;0;0;0
5.3555339050035187;-0.0047139673682599879;0;0;0;0;0
5.3879916862459645;-0.0055557023301960294;0;0;0;0;0
5.4204494674884103;-0.0063439328416364594;0;0;0;0;0
5.4529072487308552;-0.0070710678118654771;0;0;0;0;0
5.485365029973301;-0.0077301045336273687;0;0;0;0;0
5.5178228112157468;-0.0083146961230254699;0;0;0;0;0
5.5502805924581926;-0.0088192126434835632;0;0;0;0;0
5.5827383737006375;-0.009238795325112863;0;0;0;0;0
5.6151961549430833;-0.0095694033573220944;0;0;0;0;0
5.6476539361855291;-0.0098078528040323083;0;0;0;0;0
5.6801117174279749;-0.0099518472667219707;0;0;0;0;0
5.7125694986704199;-0.01;0;0;0;0;0
5.7450272799128657;-0.0099518472667219689;0;0;0;0;0
5.7774850611553115;-0.0098078528040323031;0;0;0;0;0
5.8099428423977564;-0.0095694033573220892;0;0;0;0;0
5.8424006236402022;-0.0092387953251128682;0;0;0;0;0
5.874858404882648;-0.0088192126434835354;0;0;0;0;0
5.9073161861250938;-0.0083146961230254387;0;0;0;0;0
5.9397739673675387;-0.0077301045336273782;0;0;0;0;0
5.9722317486099845;-0.0070710678118654615;0;0;0;0;0
6.0046895298524303;-0.0063439328416364429;0;0;0;0;0
6.0371473110948761;-0.0055557023301960121;0;0;0;0;0
6.069605092337321;-0.004713967368259968;0;0;0;0;0
6.1020628735797668;-0.0038268343236508924;0;0;0;0;0
6.1345206548222126;-0.0029028467725446213;0;0;0;0;0
6.1669784360646585;-0.0019509032201612483;0;0;0;0;0
6.1994362173071034;-0.00098017140329560997;0;0;0;0;0
6.2318939985495492;2.8179255993120889e-17;0;0;0;0;0
6.264351779791995;0.00098017140329563078;0;0;0;0;0
6.2968095610344399;0.0019509032201612689;0;0;0;0;0
6.3292673422768857;0.0029028467725446413;0;0;0;0;0
6.3617251235193315;0.0038268343236509111;0;0;0;0;0
6.3941829047617773;0.0047139673682599862;0;0;0;0;0
6.4266406860042222;0.0055557023301960285;0;0;0;0;0
6.459098467246668;0.0063439328416364585;0;0;0;0;0
6.4915562484891138;0.0070710678118654762;0;0;0;0;0
6.5240140297315596;0.0077301045336273912;0;0;0;0;0
6.5564718109740046;0.0083146961230254491;0;0;0;0;0
6.5889295922164504;0.0088192126434835632;0;0;0;0;0
6.6213873734588962;0.0092387953251128769;0;0;0;0;0
6.653845154701342;0.0095694033573220944;0;0;0;0;0
6.6863029359437869;0.0098078528040323083;0;0;0;0;0
6.7187607171862327;0.0099518472667219707;0;0;0;0;0
6.7512184984286785;0.01;0;0;0;0;0
6.7836762796711234;0.0099518472667219689;0;0;0;0;0
6.8161340609135692;0.0098078528040323049;0;0;0;0;0
6.848591842156015;0.0095694033573220892;0;0;0;0;0
6.8810496233984608;0.0092387953251128561;0;0;0;0;0
6.9135074046409057;0.0088192126434835545;0;0;0;0;0
6.9459651858833515;0.0083146961230254387;0;0;0;0;0
6.9784229671257973;0.0077301045336273556;0;0;0;0;0
7.0108807483682432;0.0070710678118654623;0;0;0;0;0
7.0433385296106881;0.0063439328416364437;0;0;0;0;0
7.0757963108531339;0.0055557023301960129;0;0;0;0;0
7.1082540920955797;0.0047139673682599697;0;0;0;0;0
7.1407118733380255;0.0038268343236508608;0;0;0;0;0
7.1731696545804704;0.0029028467725446222;0;0;0;0;0
7.2056274358229162;0.0019509032201612845;0;0;0;0;0
7.238085217065362;0.0009801714032955757;0;0;0;0;0
7.2705429983078069;8.572527594031472e-18;0;0;0;0;0
7.3030007795502527;-0.00098017140329562948;0;0;0;0;0
7.3354585607926985;-0.0019509032201613025;0;0;0;0;0
7.3679163420351443;-0.00290284677254464;0;0;0;0;0
7.4003741232775893;-0.0038268343236509102;0;0;0;0;0
7.4328319045200351;-0.0047139673682599853;0;0;0;0;0
7.4652896857624809;-0.0055557023301960277;0;0;0;0;0
7.4977474670049267;-0.0063439328416364854;0;0;0;0;0
7.5302052482473716;-0.0070710678118654762;0;0;0;0;0
7.5626630294898174;-0.0077301045336273678;0;0;0;0;0
7.5951208107322632;-0.0083146961230254682;0;0;0;0;0
7.627578591974709;-0.0088192126434835632;0;0;0;0;0
7.6600363732171539;-0.0092387953251128769;0;0;0;0;0
7.6924941544595997;-0.0095694033573220944;0;0;0;0;0
7.7249519357020455;-0.0098078528040323083;0;0;0;0;0
7.7574097169444913;-0.0099518472667219707;0;0;0;0;0
7.7898674981869362;-0.01;0;0;0;0;0
7.8223252794293821;-0.0099518472667219689;0;0;0;0;0
7.8547830606718279;-0.0098078528040322979;0;0;0;0;0
7.8872408419142728;-0.0095694033573220892;0;0;0;0;0
7.9196986231567186;-0.00923879532511287;0;0;0;0;0
7.9521564043991644;-0.0088192126434835372;0;0;0;0;0
7.9846141856416102;-0.0083146961230254387;0;0;0;0;0
8.0170719668840551;-0.0077301045336273565;0;0;0;0;0
8.0495297481265009;-0.0070710678118654641;0;0;0;0;0
8.0819875293689467;-0.0063439328416364437;0;0;0;0;0
8.1144453106113925;-0.0055557023301960138;0;0;0;0;0
8.1469030918538383;-0.0047139673682599385;0;0;0;0;0
8.1793608730962841;-0.0038268343236508616;0;0;0;0;0
8.2118186543387282;-0.0029028467725446235;0;0;0;0;0
8.244276435581174;-0.0019509032201612858;0;0;0;0;0
8.2767342168236198;-0.00098017140329561235;0;0;0;0;0
8.3091919980660656;2.5729962394826188e-17;0;0;0;0;0
8.3416497793085114;0.00098017140329562818;0;0;0;0;0
8.3741075605509572;0.0019509032201613014;0;0;0;0;0
8.406565341793403;0.0029028467725446729;0;0;0;0;0
8.439023123035847;0.0038268343236508764;0;0;0;0;0
8.4714809042782928;0.0047139673682599845;0;0;0;0;0
8.5039386855207386;0.0055557023301960277;0;0;0;0;0
8.5363964667631844;0.0063439328416364576;0;0;0;0;0
8.5688542480056302;0.0070710678118654988;0;0;0;0;0
8.601312029248076;0.0077301045336273886;0;0;0;0;0
8.6337698104905218;0.0083146961230254682;0;0;0;0;0
8.6662275917329676;0.0088192126434835615;0;0;0;0;0
8.6986853729754117;0.0092387953251128613;0;0;0;0;0
8.7311431542178575;0.0095694033573220944;0;0;0;0;0
8.7636009354603033;0.0098078528040323083;0;0;0;0;0
8.7960587167027491;0.0099518472667219707;0;0;0;0;0
8.8285164979451949;0.01;0;0;0;0;0
8.8609742791876407;0.0099518472667219655;0;0;0;0;0
8.8934320604300865;0.0098078528040322979;0;0;0;0;0
8.9258898416725305;0.0095694033573220892;0;0;0;0;0
8.9583476229149763;0.00923879532511287;0;0;0;0;0
8.9908054041574221;0.0088192126434835545;0;0;0;0;0
9.0232631853998679;0.0083146961230254404;0;0;0;0;0
9.0557209666423137;0.0077301045336273582;0;0;0;0;0
9.0881787478847595;0.0070710678118654641;0;0;0;0;0
9.1206365291272053;0.0063439328416364186;0;0;0;0;0
9.1530943103696512;0.0055557023301959852;0;0;0;0;0
9.1855520916120952;0.0047139673682599715;0;0;0;0;0
9.218009872854541;0.0038268343236508959;0;0;0;0;0
9.2504676540969868;0.0029028467725446244;0;0;0;0;0
9.2829254353394326;0.001950903220161252;0;0;0;0;0
9.3153832165818784;0.00098017140329557831;0;0;0;0;0
9.3478409978243242;-2.4505315595678831e-17;0;0;0;0;0
9.38029877906677;-0.0009801714032956271;0;0;0;0;0
9.412756560309214;-0.0019509032201612652;0;0;0;0;0
9.4452143415516598;-0.0029028467725446374;0;0;0;0;0
9.4776721227941056;-0.003826834323650908;0;0;0;0;0
9.5101299040365515;-0.0047139673682599836;0;0;0;0;0
9.5425876852789973;-0.0055557023301960259;0;0;0;0;0
9.5750454665214431;-0.0063439328416364828;0;0;0;0;0
9.6075032477638889;-0.0070710678118654988;0;0;0;0;0
9.6399610290063347;-0.0077301045336273886;0;0;0;0;0
9.6724188102487787;-0.0083146961230254474;0;0;0;0;0
9.7048765914912245;-0.0088192126434835441;0;0;0;0;0
9.7373343727336703;-0.0092387953251128752;0;0;0;0;0
9.7697921539761161;-0.0095694033573220944;0;0;0;0;0
9.8022499352185619;-0.0098078528040323066;0;0;0;0;0
9.8347077164610077;-0.0099518472667219741;0;0;0;0;0
9.8671654977034535;-0.01;0;0;0;0;0
9.8996232789458976;-0.0099518472667219689;0;0;0;0;0
9.9320810601883434;-0.0098078528040323049;0;0;0;0;0
9.9645388414307892;-0.0095694033573220892;0;0;0;0;0
9.996996622673235;-0.0092387953251128561;0;0;0;0;0
10.029454403915681;-0.0088192126434835389;0;0;0;0;0
10.061912185158127;-0.0083146961230254404;0;0;0;0;0
10.094369966400572;-0.0077301045336273582;0;0;0;0;0
10.126827747643018;-0.0070710678118654407;0;0;0;0;0
10.159285528885462;-0.0063439328416364463;0;0;0;0;0
10.191743310127908;-0.0055557023301960155;0;0;0;0;0
10.224201091370354;-0.0047139673682599723;0;0;0;0;0
10.2566588726128;-0.0038268343236508968;0;0;0;0;0
10.289116653855245;-0.0029028467725445918;0;0;0;0;0
10.321574435097691;-0.0019509032201612533;0;0;0;0;0
10.354032216340137;-0.00098017140329557961;0;0;0;0;0
10.386489997582583;5.880780558453649e-17;0;0;0;0;0
10.418947778825027;0.00098017140329559045;0;0;0;0;0
10.451405560067473;0.0019509032201612988;0;0;0;0;0
10.483863341309918;0.0029028467725446361;0;0;0;0;0
10.516321122552364;0.0038268343236509067;0;0;0;0;0
10.54877890379481;0.004713967368260014;0;0;0;0;0
10.581236685037256;0.0055557023301960537;0;0;0;0;0
10.613694466279702;0.0063439328416365097;0;0;0;0;0
10.646152247522146;0.0070710678118654485;0;0;0;0;0
10.678610028764592;0.007730104533627366;0;0;0;0;0
10.711067810007037;0.0083146961230254664;0;0;0;0;0
10.743525591249483;0.0088192126434835441;0;0;0;0;0
10.775983372491929;0.0092387953251128734;0;0;0;0;0
10.808441153734375;0.0095694033573221048;0;0;0;0;0
10.840898934976821;0.0098078528040323066;0;0;0;0;0
10.873356716219266;0.0099518472667219724;0;0;0;0;0
10.90581449746171;0.01;0;0;0;0;0
10.938272278704156;0.0099518472667219655;0;0;0;0;0
10.970730059946602;0.0098078528040323049;0;0;0;0;0
11.003187841189048;0.0095694033573220788;0;0;0;0;0
11.035645622431494;0.0092387953251128439;0;0;0;0;0
11.068103403673939;0.0088192126434835389;0;0;0;0;0
11.100561184916385;0.0083146961230254213;0;0;0;0;0
11.133018966158829;0.0077301045336273591;0;0;0;0;0
11.165476747401275;0.0070710678118654918;0;0;0;0;0
11.197934528643721;0.0063439328416364472;0;0;0;0;0
11.230392309886167;0.0055557023301959878;0;0;0;0;0
11.262850091128612;0.0047139673682599741;0;0;0;0;0
11.295307872371058;0.0038268343236508651;0;0;0;0;0
11.327765653613504;0.0029028467725445589;0;0;0;0;0
11.36022343485595;0.0019509032201612544;0;0;0;0;0
11.392681216098394;0.00098017140329561604;0;0;0;0;0
11.42513899734084;-2.2056021997384124e-17;0;0;0;0;0
11.457596778583286;-0.00098017140329558937;0;0;0;0;0
11.490054559825731;-0.0019509032201612978;0;0;0;0;0
11.522512341068177;-0.0029028467725446695;0;0;0;0;0
11.554970122310623;-0.0038268343236509059;0;0;0;0;0
11.587427903553069;-0.0047139673682600122;0;0;0;0;0
11.619885684795513;-0.0055557023301960242;0;0;0;0;0
11.652343466037959;-0.0063439328416364819;0;0;0;0;0
11.684801247280404;-0.007071067811865471;0;0;0;0;0
11.71725902852285;-0.0077301045336273869;0;0;0;0;0
11.749716809765296;-0.0083146961230254855;0;0;0;0;0
11.782174591007742;-0.0088192126434835615;0;0;0;0;0
11.814632372250188;-0.0092387953251128873;0;0;0;0;0
11.847090153492633;-0.0095694033573220927;0;0;0;0;0
11.879547934735077;-0.0098078528040322997;0;0;0;0;0
11.912005715977523;-0.0099518472667219689;0;0;0;0;0
11.944463497219969;-0.01;0;0;0;0;0
11.976921278462415;-0.0099518472667219689;0;0;0;0;0
12.009379059704861;-0.0098078528040322979;0;0;0;0;0
12.041836840947306;-0.0095694033573220701;0;0;0;0;0
12.074294622189752;-0.0092387953251128578;0;0;0;0;0
12.106752403432196;-0.0088192126434835563;0;0;0;0;0
12.139210184674642;-0.0083146961230254422;0;0;0;0;0
12.171667965917088;-0.0077301045336273825;0;0;0;0;0
12.204125747159534;-0.0070710678118654667;0;0;0;0;0
12.236583528401979;-0.0063439328416364203;0;0;0;0;0
12.269041309644425;-0.0055557023301960173;0;0;0;0;0
12.301499090886871;-0.0047139673682599428;0;0;0;0;0
12.333956872129317;-0.0038268343236508334;0;0;0;0;0
12.366414653371761;-0.002902846772544594;0;0;0;0;0
12.398872434614207;-0.0019509032201612906;0;0;0;0;0
12.431330215856653;-0.00098017140329558199;0;0;0;0;0
12.463787997099098;5.6358511986241777e-17;0;0;0;0;0
12.496245778341544;0.00098017140329562341;0;0;0;0;0
12.52870355958399;0.0019509032201613314;0;0;0;0;0
12.561161340826436;0.0029028467725446339;0;0;0;0;0
12.59361912206888;0.0038268343236508716;0;0;0;0;0
12.626076903311326;0.0047139673682599801;0;0;0;0;0
12.658534684553771;0.005555702330196052;0;0;0;0;0
12.690992465796217;0.0063439328416364524;0;0;0;0;0
12.723450247038663;0.0070710678118654962;0;0;0;0;0
12.755908028281109;0.0077301045336274085;0;0;0;0;0
12.788365809523555;0.0083146961230254647;0;0;0;0;0
12.820823590766;0.0088192126434835771;0;0;0;0;0
12.853281372008444;0.0092387953251128734;0;0;0;0;0
12.88573915325089;0.0095694033573220823;0;0;0;0;0
12.918196934493336;0.0098078528040323066;0;0;0;0;0
12.950654715735782;0.0099518472667219724;0;0;0;0;0
12.983112496978228;0.01;0;0;0;0;0
13.015570278220673;0.0099518472667219655;0;0;0;0;0
13.048028059463119;0.009807852804032291;0;0;0;0;0
13.080485840705563;0.0095694033573220805;0;0;0;0;0
13.112943621948009;0.0092387953251128717;0;0;0;0;0
13.145401403190455;0.0088192126434835406;0;0;0;0;0
13.177859184432901;0.0083146961230254231;0;0;0;0;0
13.210316965675347;0.00773010453362736;0;0;0;0;0
13.242774746917792;0.0070710678118654424;0;0;0;0;0
13.275232528160238;0.0063439328416364498;0;0;0;0;0
13.307690309402684;0.0055557023301959895;0;0;0;0;0
13.340148090645128;0.0047139673682599758;0;0;0;0;0
13.372605871887574;0.0038268343236508673;0;0;0;0;0
13.40506365313002;0.0029028467725446296;0;0;0;0;0
13.437521434372465;0.001950903220161257;0;0;0;0;0
13.469979215614911;0.00098017140329554773;0;0;0;0;0
13.502436996857357;-1.9606728399089417e-17;0;0;0;0;0
13.534894778099803;-0.00098017140329565745;0;0;0;0;0
13.567352559342247;-0.0019509032201612954;0;0;0;0;0
13.599810340584693;-0.0029028467725445988;0;0;0;0;0
13.632268121827138;-0.0038268343236509033;0;0;0;0;0
13.664725903069584;-0.0047139673682600105;0;0;0;0;0
13.69718368431203;-0.0055557023301960216;0;0;0;0;0
13.729641465554476;-0.0063439328416364793;0;0;0;0;0
13.762099246796922;-0.0070710678118655204;0;0;0;0;0
13.794557028039367;-0.007730104533627386;0;0;0;0;0
13.827014809281811;-0.0083146961230254439;0;0;0;0;0
13.859472590524257;-0.008819212643483558;0;0;0;0;0
13.891930371766703;-0.0092387953251128873;0;0;0;0;0
13.924388153009149;-0.0095694033573220909;0;0;0;0;0
13.956845934251595;-0.0098078528040323135;0;0;0;0;0
13.989303715494041;-0.0099518472667219689;0;0;0;0;0
14.021761496736486;-0.01;0;0;0;0;0
14.05421927797893;-0.0099518472667219689;0;0;0;0;0
14.086677059221376;-0.0098078528040322997;0;0;0;0;0
14.119134840463822;-0.0095694033573220909;0;0;0;0;0
14.151592621706268;-0.0092387953251128595;0;0;0;0;0
14.184050402948714;-0.0088192126434835233;0;0;0;0;0
14.216508184191159;-0.0083146961230254439;0;0;0;0;0
14.248965965433605;-0.0077301045336273392;0;0;0;0;0
14.281423746676051;-0.0070710678118654181;0;0;0;0;0
14.313881527918495;-0.0063439328416364776;0;0;0;0;0
14.346339309160941;-0.0055557023301960199;0;0;0;0;0
