#Time;LinearAccX;LinearAccY;LinearAccZ;AngularAccX;AngularAccY;AngularAccZ
0;0;0;0;0;0;0
0.013294707196905705;0.00098017140329560606;0;0;0;0;0
0.026589414393811409;0.0019509032201612826;0;0;0;0;0
0.039884121590717116;0.0029028467725446235;0;0;0;0;0
0.053178828787622819;0.0038268343236508981;0;0;0;0;0
0.066473535984528528;0.0047139673682599767;0;0;0;0;0
0.079768243181434231;0.0055557023301960216;0;0;0;0;0
0.093062950378339934;0.006343932841636455;0;0;0;0;0
0.10635765757524564;0.0070710678118654745;0;0;0;0;0
0.11965236477215134;0.0077301045336273704;0;0;0;0;0
0.13294707196905706;0.0083146961230254526;0;0;0;0;0
0.14624177916596276;0.0088192126434835511;0;0;0;0;0
0.15953648636286846;0.0092387953251128682;0;0;0;0;0
0.17283119355977417;0.0095694033573220892;0;0;0;0;0
0.18612590075667987;0.0098078528040323049;0;0;0;0;0
0.19942060795358557;0.0099518472667219689;0;0;0;0;0
0.21271531515049127;0.01;0;0;0;0;0
0.22601002234739698;0.0099518472667219689;0;0;0;0;0
0.23930472954430268;0.0098078528040323049;0;0;0;0;0
0.25259943674120838;0.0095694033573220892;0;0;0;0;0
0.26589414393811411;0.0092387953251128682;0;0;0;0;0
0.27918885113501979;0.0088192126434835511;0;0;0;0;0
0.29248355833192552;0.0083146961230254508;0;0;0;0;0
0.30577826552883119;0.0077301045336273713;0;0;0;0;0
0.31907297272573693;0.0070710678118654762;0;0;0;0;0
0.3323676799226426;0.006343932841636455;0;0;0;0;0
0.34566238711954833;0.0055557023301960216;0;0;0;0;0
0.35895709431645401;0.0047139673682599784;0;0;0;0;0
0.37225180151335974;0.0038268343236508989;0;0;0;0;0
0.38554650871026541;0.0029028467725446239;0;0;0;0;0
0.39884121590717114;0.0019509032201612817;0;0;0;0;0
0.41213592310407682;0.00098017140329560823;0;0;0;0;0
0.42543063030098255;1.2246467991473532e-18;0;0;0;0;0
0.43872533749788828;-0.00098017140329560585;0;0;0;0;0
0.45202004469479395;-0.0019509032201612837;0;0;0;0;0
0.46531475189169968;-0.0029028467725446257;0;0;0;0;0
0.47860945908860536;-0.0038268343236508968;0;0;0;0;0
0.49190416628551109;-0.0047139673682599767;0;0;0;0;0
0.50519887348241677;-0.0055557023301960233;0;0;0;0;0
0.5184935806793225;-0.0063439328416364559;0;0;0;0;0
0.53178828787622823;-0.0070710678118654771;0;0;0;0;0
0.54508299507313385;-0.0077301045336273669;0;0;0;0;0
0.55837770227003958;-0.0083146961230254526;0;0;0;0;0
0.57167240946694531;-0.0088192126434835493;0;0;0;0;0
0.58496711666385104;-0.0092387953251128682;0;0;0;0;0
0.59826182386075666;-0.0095694033573220892;0;0;0;0;0
0.61155653105766239;-0.0098078528040323031;0;0;0;0;0
0.62485123825456812;-0.0099518472667219689;0;0;0;0;0
0.63814594545147385;-0.01;0;0;0;0;0
0.65144065264837958;-0.0099518472667219689;0;0;0;0;0
0.6647353598452852;-0.0098078528040323049;0;0;0;0;0
0.67803006704219093;-0.0095694033573220892;0;0;0;0;0
0.69132477423909666;-0.0092387953251128665;0;0;0;0;0
0.70461948143600239;-0.0088192126434835458;0;0;0;0;0
0.71791418863290801;-0.0083146961230254543;0;0;0;0;0
0.73120889582981374;-0.0077301045336273687;0;0;0;0;0
0.74450360302671947;-0.0070710678118654771;0;0;0;0;0
0.7577983102236252;-0.0063439328416364524;0;0;0;0;0
0.77109301742053082;-0.0055557023301960216;0;0;0;0;0
0.78438772461743655;-0.0047139673682599793;0;0;0;0;0
0.79768243181434229;-0.0038268343236508959;0;0;0;0;0
0.81097713901124802;-0.0029028467725446252;0;0;0;0;0
0.82427184620815364;-0.0019509032201612873;0;0;0;0;0
0.83756655340505937;-0.00098017140329560498;0;0;0;0;0
0.8508612606019651;-2.4492935982947064e-18;0;0;0;0;0
0.86415596779887083;0.0009801714032956091;0;0;0;0;0
0.87745067499577656;0.0019509032201612826;0;0;0;0;0
0.89074538219268218;0.00290284677254462;0;0;0;0;0
0.90404008938958791;0.0038268343236508994;0;0;0;0;0
0.91733479658649364;0.0047139673682599758;0;0;0;0;0
0.93062950378339937;0.0055557023301960251;0;0;0;0;0
0.94392421098030499;0.0063439328416364559;0;0;0;0;0
0.95721891817721072;0.0070710678118654736;0;0;0;0;0
0.97051362537411645;0.0077301045336273713;0;0;0;0;0
0.98380833257102218;0.0083146961230254526;0;0;0;0;0
0.9971030397679278;0.0088192126434835493;0;0;0;0;0
1.0103977469648335;0.0092387953251128682;0;0;0;0;0
1.0236924541617392;0.0095694033573220857;0;0;0;0;0
1.036987161358645;0.0098078528040323049;0;0;0;0;0
1.0502818685555506;0.0099518472667219689;0;0;0;0;0
1.0635765757524565;0.01;0;0;0;0;0
1.0768712829493621;0.0099518472667219689;0;0;0;0;0
1.0901659901462677;0.0098078528040323066;0;0;0;0;0
1.1034606973431735;0.0095694033573220875;0;0;0;0;0
1.1167554045400792;0.0092387953251128682;0;0;0;0;0
1.130050111736985;0.0088192126434835424;0;0;0;0;0
1.1433448189338906;0.008314696123025456;0;0;0;0;0
1.1566395261307962;0.0077301045336273756;0;0;0;0;0
1.1699342333277021;0.007071067811865471;0;0;0;0;0
1.1832289405246077;0.0063439328416364541;0;0;0;0;0
1.1965236477215133;0.0055557023301960233;0;0;0;0;0
1.2098183549184192;0.0047139673682599801;0;0;0;0;0
1.2231130621153248;0.003826834323650905;0;0;0;0;0
1.2364077693122306;0.0029028467725446178;0;0;0;0;0
1.2497024765091362;0.0019509032201612798;0;0;0;0;0
1.2629971837060419;0.00098017140329560628;0;0;0;0;0
1.2762918909029477;3.6739403974420592e-18;0;0;0;0;0
1.2895865980998533;-0.00098017140329559891;0;0;0;0;0
1.3028813052967592;-0.0019509032201612899;0;0;0;0;0
1.3161760124936648;-0.0029028467725446278;0;0;0;0;0
1.3294707196905704;-0.0038268343236508985;0;0;0;0;0
1.3427654268874762;-0.0047139673682599741;0;0;0;0;0
1.3560601340843819;-0.0055557023301960173;0;0;0;0;0
1.3693548412812875;-0.0063439328416364472;0;0;0;0;0
1.3826495484781933;-0.0070710678118654788;0;0;0;0;0
1.3959442556750989;-0.0077301045336273713;0;0;0;0;0
1.4092389628720048;-0.0083146961230254612;0;0;0;0;0
1.4225336700689104;-0.0088192126434835493;0;0;0;0;0
1.435828377265816;-0.0092387953251128647;0;0;0;0;0
1.4491230844627219;-0.0095694033573220909;0;0;0;0;0
1.4624177916596275;-0.0098078528040323049;0;0;0;0;0
1.4757124988565331;-0.0099518472667219689;0;0;0;0;0
1.4890072060534389;-0.01;0;0;0;0;0
1.5023019132503446;-0.0099518472667219689;0;0;0;0;0
1.5155966204472504;-0.0098078528040323031;0;0;0;0;0
1.528891327644156;-0.0095694033573220875;0;0;0;0;0
1.5421860348410616;-0.0092387953251128682;0;0;0;0;0
1.5554807420379675;-0.0088192126434835511;0;0;0;0;0
1.5687754492348731;-0.008314696123025456;0;0;0;0;0
1.582070156431779;-0.0077301045336273643;0;0;0;0;0
1.5953648636286846;-0.0070710678118654727;0;0;0;0;0
1.6086595708255902;-0.0063439328416364541;0;0;0;0;0
1.621954278022496;-0.0055557023301960242;0;0;0;0;0
1.6352489852194017;-0.0047139673682599819;0;0;0;0;0
1.6485436924163073;-0.0038268343236509063;0;0;0;0;0
1.6618383996132131;-0.0029028467725446187;0;0;0;0;0
1.6751331068101187;-0.0019509032201612808;0;0;0;0;0
1.6884278140070246;-0.00098017140329560758;0;0;0;0;0
1.7017225212039302;-4.8985871965894128e-18;0;0;0;0;0
1.7150172284008358;0.00098017140329559782;0;0;0;0;0
1.7283119355977417;0.0019509032201612886;0;0;0;0;0
1.7416066427946473;0.0029028467725446261;0;0;0;0;0
1.7549013499915531;0.0038268343236508972;0;0;0;0;0
1.7681960571884587;0.0047139673682599732;0;0;0;0;0
1.7814907643853644;0.0055557023301960164;0;0;0;0;0
1.7947854715822702;0.0063439328416364602;0;0;0;0;0
1.8080801787791758;0.0070710678118654779;0;0;0;0;0
1.8213748859760814;0.0077301045336273704;0;0;0;0;0
1.8346695931729873;0.0083146961230254508;0;0;0;0;0
1.8479643003698929;0.0088192126434835476;0;0;0;0;0
1.8612590075667987;0.0092387953251128717;0;0;0;0;0
1.8745537147637044;0.0095694033573220909;0;0;0;0;0
1.88784842196061;0.0098078528040323049;0;0;0;0;0
1.9011431291575158;0.0099518472667219689;0;0;0;0;0
1.9144378363544214;0.01;0;0;0;0;0
1.9277325435513273;0.0099518472667219689;0;0;0;0;0
1.9410272507482329;0.0098078528040323031;0;0;0;0;0
1.9543219579451385;0.0095694033573220892;0;0;0;0;0
1.9676166651420444;0.0092387953251128682;0;0;0;0;0
1.98091137233895;0.0088192126434835528;0;0;0;0;0
1.9942060795358556;0.0083146961230254578;0;0;0;0;0
2.0075007867327614;0.007730104533627366;0;0;0;0;0
2.0207954939296671;0.0070710678118654736;0;0;0;0;0
2.0340902011265727;0.006343932841636455;0;0;0;0;0
2.0473849083234783;0.0055557023301960398;0;0;0;0;0
2.0606796155203844;0.0047139673682599671;0;0;0;0;0
2.07397432271729;0.0038268343236508911;0;0;0;0;0
2.0872690299141956;0.00290284677254462;0;0;0;0;0
2.1005637371111012;0.0019509032201612821;0;0;0;0;0
2.1138584443080068;0.00098017140329562645;0;0;0;0;0
2.1271531515049129;-1.164033439826574e-17;0;0;0;0;0
2.1404478587018185;-0.0009801714032956143;0;0;0;0;0
2.1537425658987241;-0.0019509032201612876;0;0;0;0;0
2.1670372730956298;-0.0029028467725446083;0;0;0;0;0
2.1803319802925354;-0.0038268343236508794;0;0;0;0;0
2.1936266874894415;-0.0047139673682599879;0;0;0;0;0
2.2069213946863471;-0.0055557023301960294;0;0;0;0;0
2.2202161018832527;-0.0063439328416364594;0;0;0;0;0
2.2335108090801583;-0.0070710678118654771;0;0;0;0;0
2.2468055162770639;-0.0077301045336273687;0;0;0;0;0
2.26010022347397;-0.0083146961230254699;0;0;0;0;0
2.2733949306708756;-0.0088192126434835476;0;0;0;0;0
2.2866896378677812;-0.009238795325112863;0;0;0;0;0
2.2999843450646869;-0.0095694033573220857;0;0;0;0;0
2.3132790522615925;-0.0098078528040323014;0;0;0;0;0
2.3265737594584981;-0.0099518472667219672;0;0;0;0;0
2.3398684666554042;-0.01;0;0;0;0;0
2.3531631738523098;-0.0099518472667219689;0;0;0;0;0
2.3664578810492154;-0.0098078528040323031;0;0;0;0;0
2.379752588246121;-0.0095694033573220892;0;0;0;0;0
2.3930472954430266;-0.0092387953251128682;0;0;0;0;0
2.4063420026399327;-0.0088192126434835354;0;0;0;0;0
2.4196367098368383;-0.0083146961230254578;0;0;0;0;0
2.4329314170337439;-0.0077301045336273782;0;0;0;0;0
2.4462261242306496;-0.0070710678118654866;0;0;0;0;0
2.4595208314275552;-0.0063439328416364706;0;0;0;0;0
2.4728155386244612;-0.0055557023301960121;0;0;0;0;0
2.4861102458213669;-0.004713967368259968;0;0;0;0;0
2.4994049530182725;-0.0038268343236508924;0;0;0;0;0
2.5126996602151781;-0.0029028467725446213;0;0;0;0;0
2.5259943674120837;-0.0019509032201612834;0;0;0;0;0
2.5392890746089898;-0.00098017140329557462;0;0;0;0;0
2.5525837818058954;-7.3478807948841184e-18;0;0;0;0;0
2.565878489002801;0.00098017140329559544;0;0;0;0;0
2.5791731961997066;0.0019509032201612689;0;0;0;0;0
2.5924679033966123;0.0029028467725446074;0;0;0;0;0
2.6057626105935183;0.0038268343236509111;0;0;0;0;0
2.6190573177904239;0.0047139673682599862;0;0;0;0;0
2.6323520249873296;0.0055557023301960285;0;0;0;0;0
2.6456467321842352;0.0063439328416364585;0;0;0;0;0
2.6589414393811408;0.0070710678118654762;0;0;0;0;0
2.6722361465780464;0.0077301045336273678;0;0;0;0;0
2.6855308537749525;0.0083146961230254491;0;0;0;0;0
2.6988255609718581;0.0088192126434835458;0;0;0;0;0
2.7121202681687637;0.009238795325112863;0;0;0;0;0
2.7254149753656693;0.009569403357322084;0;0;0;0;0
2.738709682562575;0.0098078528040323014;0;0;0;0;0
2.752004389759481;0.0099518472667219707;0;0;0;0;0
2.7652990969563866;0.01;0;0;0;0;0
2.7785938041532923;0.0099518472667219689;0;0;0;0;0
2.7918885113501979;0.0098078528040323049;0;0;0;0;0
2.8051832185471035;0.0095694033573220892;0;0;0;0;0
2.8184779257440096;0.0092387953251128561;0;0;0;0;0
2.8317726329409152;0.0088192126434835545;0;0;0;0;0
2.8450673401378208;0.0083146961230254578;0;0;0;0;0
2.8583620473347264;0.0077301045336273791;0;0;0;0;0
2.871656754531632;0.0070710678118654866;0;0;0;0;0
2.8849514617285381;0.0063439328416364437;0;0;0;0;0
2.8982461689254437;0.0055557023301960129;0;0;0;0;0
2.9115408761223494;0.0047139673682599697;0;0;0;0;0
2.924835583319255;0.0038268343236508933;0;0;0;0;0
2.9381302905161606;0.0029028467725446222;0;0;0;0;0
2.9514249977130662;0.0019509032201612845;0;0;0;0;0
2.9647197049099723;0.00098017140329561127;0;0;0;0;0
2.9780144121068779;8.572527594031472e-18;0;0;0;0;0
2.9913091193037835;-0.00098017140329559414;0;0;0;0;0
3.0046038265006891;-0.0019509032201612678;0;0;0;0;0
3.0178985336975948;-0.0029028467725446057;0;0;0;0;0
3.0311932408945008;-0.0038268343236509102;0;0;0;0;0
3.0444879480914064;-0.0047139673682599853;0;0;0;0;0
3.0577826552883121;-0.0055557023301960277;0;0;0;0;0
3.0710773624852177;-0.0063439328416364576;0;0;0;0;0
3.0843720696821233;-0.0070710678118654762;0;0;0;0;0
3.0976667768790294;-0.0077301045336273678;0;0;0;0;0
3.110961484075935;-0.0083146961230254491;0;0;0;0;0
3.1242561912728406;-0.0088192126434835458;0;0;0;0;0
3.1375508984697462;-0.009238795325112863;0;0;0;0;0
3.1508456056666518;-0.009569403357322084;0;0;0;0;0
3.1641403128635579;-0.0098078528040323083;0;0;0;0;0
3.1774350200604635;-0.0099518472667219707;0;0;0;0;0
3.1907297272573691;-0.01;0;0;0;0;0
3.2040244344542748;-0.0099518472667219689;0;0;0;0;0
3.2173191416511804;-0.0098078528040323049;0;0;0;0;0
3.2306138488480864;-0.0095694033573220788;0;0;0;0;0
3.2439085560449921;-0.00923879532511287;0;0;0;0;0
3.2572032632418977;-0.0088192126434835545;0;0;0;0;0
3.2704979704388033;-0.0083146961230254595;0;0;0;0;0
3.2837926776357089;-0.0077301045336273791;0;0;0;0;0
3.2970873848326145;-0.0070710678118654884;0;0;0;0;0
3.3103820920295206;-0.0063439328416364437;0;0;0;0;0
3.3236767992264262;-0.0055557023301960138;0;0;0;0;0
3.3369715064233318;-0.0047139673682599706;0;0;0;0;0
3.3502662136202375;-0.0038268343236508946;0;0;0;0;0
3.3635609208171431;-0.0029028467725446235;0;0;0;0;0
3.3768556280140491;-0.0019509032201612858;0;0;0;0;0
3.3901503352109548;-0.00098017140329561235;0;0;0;0;0
3.4034450424078604;-9.7971743931788255e-18;0;0;0;0;0
3.416739749604766;0.00098017140329559284;0;0;0;0;0
3.4300344568016716;0.0019509032201612665;0;0;0;0;0
3.4433291639985777;0.0029028467725446391;0;0;0;0;0
3.4566238711954833;0.0038268343236509089;0;0;0;0;0
3.4699185783923889;0.0047139673682599845;0;0;0;0;0
3.4832132855892945;0.0055557023301960277;0;0;0;0;0
3.4965079927862002;0.0063439328416364576;0;0;0;0;0
3.5098026999831062;0.0070710678118654745;0;0;0;0;0
3.5230974071800119;0.0077301045336273669;0;0;0;0;0
3.5363921143769175;0.0083146961230254474;0;0;0;0;0
3.5496868215738231;0.0088192126434835458;0;0;0;0;0
3.5629815287707287;0.0092387953251128613;0;0;0;0;0
3.5762762359676343;0.009569403357322084;0;0;0;0;0
3.5895709431645404;0.0098078528040323083;0;0;0;0;0
3.602865650361446;0.0099518472667219707;0;0;0;0;0
3.6161603575583516;0.01;0;0;0;0;0
3.6294550647552573;0.0099518472667219689;0;0;0;0;0
3.6427497719521629;0.0098078528040323049;0;0;0;0;0
3.6560444791490689;0.0095694033573220892;0;0;0;0;0
3.6693391863459746;0.00923879532511287;0;0;0;0;0
3.6826338935428802;0.0088192126434835545;0;0;0;0;0
3.6959286007397858;0.0083146961230254595;0;0;0;0;0
3.7092233079366914;0.0077301045336273799;0;0;0;0;0
3.7225180151335975;0.0070710678118654641;0;0;0;0;0
3.7358127223305031;0.0063439328416364446;0;0;0;0;0
3.7491074295274087;0.0055557023301960155;0;0;0;0;0
3.7624021367243143;0.0047139673682599715;0;0;0;0;0
3.77569684392122;0.0038268343236508959;0;0;0;0;0
3.788991551118126;0.0029028467725446244;0;0;0;0;0
3.8022862583150316;0.0019509032201612869;0;0;0;0;0
3.8155809655119373;0.00098017140329561365;0;0;0;0;0
3.8288756727088429;1.1021821192326179e-17;0;0;0;0;0
3.8421703799057485;-0.00098017140329559175;0;0;0;0;0
3.8554650871026546;-0.0019509032201612999;0;0;0;0;0
3.8687597942995602;-0.0029028467725446374;0;0;0;0;0
3.8820545014964658;-0.003826834323650908;0;0;0;0;0
3.8953492086933714;-0.0047139673682599836;0;0;0;0;0
3.908643915890277;-0.0055557023301960259;0;0;0;0;0
3.9219386230871827;-0.0063439328416364559;0;0;0;0;0
3.9352333302840887;-0.0070710678118654736;0;0;0;0;0
3.9485280374809943;-0.007730104533627366;0;0;0;0;0
3.9618227446779;-0.0083146961230254474;0;0;0;0;0
3.9751174518748056;-0.0088192126434835441;0;0;0;0;0
3.9884121590717112;-0.0092387953251128613;0;0;0;0;0
4.0017068662686173;-0.0095694033573220944;0;0;0;0;0
4.0150015734655229;-0.0098078528040323066;0;0;0;0;0
4.0282962806624285;-0.0099518472667219689;0;0;0;0;0
4.0415909878593341;-0.01;0;0;0;0;0
4.0548856950562397;-0.0099518472667219689;0;0;0;0;0
4.0681804022531454;-0.0098078528040323049;0;0;0;0;0
4.081475109450051;-0.0095694033573221014;0;0;0;0;0
4.0947698166469566;-0.0092387953251128838;0;0;0;0;0
4.1080645238438631;-0.0088192126434835389;0;0;0;0;0
4.1213592310407687;-0.0083146961230254404;0;0;0;0;0
4.1346539382376744;-0.0077301045336273582;0;0;0;0;0
4.14794864543458;-0.0070710678118654649;0;0;0;0;0
4.1612433526314856;-0.0063439328416364463;0;0;0;0;0
4.1745380598283912;-0.0055557023301960155;0;0;0;0;0
4.1878327670252968;-0.0047139673682599723;0;0;0;0;0
4.2011274742222025;-0.0038268343236508968;0;0;0;0;0
4.2144221814191081;-0.0029028467725446599;0;0;0;0;0
4.2277168886160137;-0.0019509032201613231;0;0;0;0;0
4.2410115958129202;-0.00098017140329557961;0;0;0;0;0
4.2543063030098258;2.328066879653148e-17;0;0;0;0;0
4.2676010102067314;0.00098017140329562579;0;0;0;0;0
4.2808957174036371;0.0019509032201612988;0;0;0;0;0
4.2941904246005427;0.0029028467725446361;0;0;0;0;0
4.3074851317974483;0.0038268343236509067;0;0;0;0;0
4.3207798389943539;0.0047139673682599819;0;0;0;0;0
4.3340745461912595;0.0055557023301959956;0;0;0;0;0
4.3473692533881652;0.006343932841636455;0;0;0;0;0
4.3606639605850708;0.0070710678118654485;0;0;0;0;0
4.3739586677819764;0.007730104533627366;0;0;0;0;0
4.3872533749788829;0.0083146961230254664;0;0;0;0;0
4.4005480821757885;0.0088192126434835771;0;0;0;0;0
4.4138427893726941;0.0092387953251128734;0;0;0;0;0
4.4271374965695998;0.0095694033573220823;0;0;0;0;0
4.4404322037665054;0.0098078528040323066;0;0;0;0;0
4.453726910963411;0.0099518472667219655;0;0;0;0;0
4.4670216181603166;0.01;0;0;0;0;0
4.4803163253572222;0.0099518472667219724;0;0;0;0;0
4.4936110325541279;0.0098078528040323049;0;0;0;0;0
4.5069057397510335;0.0095694033573221014;0;0;0;0;0
4.52020044694794;0.0092387953251128439;0;0;0;0;0
4.5334951541448456;0.0088192126434835389;0;0;0;0;0
4.5467898613417512;0.0083146961230254612;0;0;0;0;0
4.5600845685386568;0.0077301045336273591;0;0;0;0;0
4.5733792757355625;0.0070710678118654918;0;0;0;0;0
4.5866739829324681;0.0063439328416364472;0;0;0;0;0
4.5999686901293737;0.0055557023301960459;0;0;0;0;0
4.6132633973262793;0.0047139673682599741;0;0;0;0;0
4.6265581045231849;0.0038268343236509306;0;0;0;0;0
4.6398528117200906;0.0029028467725446265;0;0;0;0;0
4.6531475189169962;0.0019509032201613242;0;0;0;0;0
4.6664422261139027;0.00098017140329554535;0;0;0;0;0
4.6797369333108083;-2.2056021997384124e-17;0;0;0;0;0
4.6930316405077139;-0.00098017140329558937;0;0;0;0;0
4.7063263477046196;-0.0019509032201612978;0;0;0;0;0
4.7196210549015252;-0.0029028467725446014;0;0;0;0;0
4.7329157620984308;-0.0038268343236509059;0;0;0;0;0
4.7462104692953364;-0.0047139673682599498;0;0;0;0;0
4.759505176492242;-0.0055557023301960242;0;0;0;0;0
4.7727998836891476;-0.0063439328416364264;0;0;0;0;0
4.7860945908860533;-0.007071067811865471;0;0;0;0;0
4.7993892980829598;-0.0077301045336273869;0;0;0;0;0
4.8126840052798654;-0.0083146961230254855;0;0;0;0;0
4.825978712476771;-0.0088192126434835615;0;0;0;0;0
4.8392734196736766;-0.0092387953251128613;0;0;0;0;0
4.8525681268705823;-0.0095694033573220927;0;0;0;0;0
4.8658628340674879;-0.0098078528040322997;0;0;0;0;0
4.8791575412643935;-0.0099518472667219689;0;0;0;0;0
4.8924522484612991;-0.01;0;0;0;0;0
4.9057469556582047;-0.0099518472667219689;0;0;0;0;0
4.9190416628551104;-0.0098078528040323118;0;0;0;0;0
4.9323363700520169;-0.0095694033573220701;0;0;0;0;0
4.9456310772489225;-0.0092387953251128578;0;0;0;0;0
4.9589257844458281;-0.0088192126434835563;0;0;0;0;0
4.9722204916427337;-0.0083146961230254422;0;0;0;0;0
4.9855151988396393;-0.0077301045336273825;0;0;0;0;0
4.998809906036545;-0.0070710678118654667;0;0;0;0;0
5.0121046132334506;-0.0063439328416364758;0;0;0;0;0
5.0253993204303562;-0.0055557023301960173;0;0;0;0;0
5.0386940276272618;-0.0047139673682600062;0;0;0;0;0
5.0519887348241674;-0.0038268343236508989;0;0;0;0;0
5.0652834420210731;-0.0029028467725446621;0;0;0;0;0
5.0785781492179796;-0.001950903220161221;0;0;0;0;0
5.0918728564148852;-0.00098017140329558199;0;0;0;0;0
5.1051675636117908;-1.4695761589768237e-17;0;0;0;0;0
5.1184622708086964;0.00098017140329562341;0;0;0;0;0
5.131756978005602;0.0019509032201612618;0;0;0;0;0
5.1450516852025077;0.0029028467725446339;0;0;0;0;0
5.1583463923994133;0.0038268343236508716;0;0;0;0;0
5.1716410995963189;0.0047139673682599801;0;0;0;0;0
5.1849358067932245;0.005555702330195993;0;0;0;0;0
5.1982305139901301;0.0063439328416364524;0;0;0;0;0
5.2115252211870366;0.0070710678118654962;0;0;0;0;0
5.2248199283839423;0.0077301045336274085;0;0;0;0;0
5.2381146355808479;0.0083146961230254647;0;0;0;0;0
5.2514093427777535;0.0088192126434835424;0;0;0;0;0
5.2647040499746591;0.0092387953251128734;0;0;0;0;0
5.2779987571715647;0.0095694033573220823;0;0;0;0;0
5.2912934643684704;0.0098078528040323066;0;0;0;0;0
5.304588171565376;0.0099518472667219655;0;0;0;0;0
5.3178828787622816;0.01;0;0;0;0;0
5.3311775859591872;0.0099518472667219724;0;0;0;0;0
5.3444722931560928;0.0098078528040323049;0;0;0;0;0
5.3577670003529994;0.0095694033573220805;0;0;0;0;0
5.371061707549905;0.0092387953251128717;0;0;0;0;0
5.3843564147468106;0.0088192126434835406;0;0;0;0;0
5.3976511219437162;0.008314696123025463;0;0;0;0;0
5.4109458291406218;0.00773010453362736;0;0;0;0;0
5.4242405363375275;0.0070710678118654927;0;0;0;0;0
5.4375352435344331;0.0063439328416364498;0;0;0;0;0
5.4508299507313387;0.0055557023301960485;0;0;0;0;0
5.4641246579282443;0.0047139673682599758;0;0;0;0;0
5.4774193651251499;0.0038268343236509328;0;0;0;0;0
5.4907140723220564;0.002902846772544561;0;0;0;0;0
5.5040087795189621;0.001950903220161257;0;0;0;0;0
5.5173034867158677;0.00098017140329561864;0;0;0;0;0
5.5305981939127733;-1.9606728399089417e-17;0;0;0;0;0
5.5438929011096789;-0.00098017140329558698;0;0;0;0;0
5.5571876083065845;-0.0019509032201612954;0;0;0;0;0
5.5704823155034902;-0.0029028467725445988;0;0;0;0;0
5.5837770227003958;-0.0038268343236509033;0;0;0;0;0
5.5970717298973014;-0.004713967368259948;0;0;0;0;0
5.610366437094207;-0.0055557023301960216;0;0;0;0;0
5.6236611442911126;-0.0063439328416364247;0;0;0;0;0
5.6369558514880191;-0.0070710678118655204;0;0;0;0;0
5.6502505586849248;-0.007730104533627386;0;0;0;0;0
5.6635452658818304;-0.0083146961230254439;0;0;0;0;0
5.676839973078736;-0.008819212643483558;0;0;0;0;0
5.6901346802756416;-0.0092387953251128595;0;0;0;0;0
5.7034293874725472;-0.0095694033573220909;0;0;0;0;0
5.7167240946694529;-0.0098078528040322997;0;0;0;0;0
5.7300188018663585;-0.0099518472667219689;0;0;0;0;0
5.7433135090632641;-0.01;0;0;0;0;0
5.7566082162601697;-0.0099518472667219689;0;0;0;0;0
5.7699029234570762;-0.0098078528040322997;0;0;0;0;0
5.7831976306539818;-0.0095694033573220909;0;0;0;0;0
5.7964923378508875;-0.0092387953251128595;0;0;0;0;0
5.8097870450477931;-0.008819212643483558;0;0;0;0;0
5.8230817522446987;-0.0083146961230254439;0;0;0;0;0
5.8363764594416043;-0.0077301045336273834;0;0;0;0;0
5.8496711666385099;-0.0070710678118654684;0;0;0;0;0
5.8629658738354156;-0.0063439328416364776;0;0;0;0;0
5.8762605810323212;-0.0055557023301960199;0;0;0;0;0
5.8895552882292268;-0.0047139673682600079;0;0;0;0;0
5.9028499954261324;-0.0038268343236509011;0;0;0;0;0
5.9161447026230389;-0.0029028467725445966;0;0;0;0;0
5.9294394098199446;-0.0019509032201612928;0;0;0;0;0
5.9427341170168502;-0.00098017140329558438;0;0;0;0;0
5.9560288242137558;-1.7145055188062944e-17;0;0;0;0;0
5.9693235314106614;0.00098017140329562102;0;0;0;0;0
5.982618238607567;0.0019509032201612592;0;0;0;0;0
5.9959129458044726;0.0029028467725446317;0;0;0;0;0
6.0092076530013783;0.0038268343236508694;0;0;0;0;0
6.0225023601982839;0.0047139673682599784;0;0;0;0;0
6.0357970673951895;0.0055557023301959904;0;0;0;0;0
6.049091774592096;0.0063439328416365062;0;0;0;0;0
6.0623864817890016;0.0070710678118654944;0;0;0;0;0
6.0756811889859073;0.0077301045336273626;0;0;0;0;0
6.0889758961828129;0.008314696123025463;0;0;0;0;0
6.1022706033797185;0.0088192126434835424;0;0;0;0;0
6.1155653105766241;0.0092387953251128734;0;0;0;0;0
6.1288600177735297;0.0095694033573220823;0;0;0;0;0
6.1421547249704354;0.0098078528040323049;0;0;0;0;0
6.155449432167341;0.0099518472667219655;0;0;0;0;0
6.1687441393642466;0.01;0;0;0;0;0
6.1820388465611531;0.0099518472667219655;0;0;0;0;0
6.1953335537580587;0.0098078528040323049;0;0;0;0;0
6.2086282609549643;0.0095694033573220823;0;0;0;0;0
6.22192296815187;0.0092387953251128734;0;0;0;0;0
6.2352176753487756;0.0088192126434835424;0;0;0;0;0
6.2485123825456812;0.008314696123025463;0;0;0;0;0
6.2618070897425868;0.0077301045336273626;0;0;0;0;0
6.2751017969394924;0.0070710678118654944;0;0;0;0;0
6.2883965041363981;0.0063439328416364507;0;0;0;0;0
6.3016912113333037;0.0055557023301960511;0;0;0;0;0
6.3149859185302093;0.0047139673682599784;0;0;0;0;0
6.3282806257271158;0.0038268343236508694;0;0;0;0;0
6.3415753329240214;0.0029028467725446317;0;0;0;0;0
6.354870040120927;0.0019509032201612592;0;0;0;0;0
6.3681647473178327;0.00098017140329562081;0;0;0;0;0
6.3814594545147383;-1.7157434800794713e-17;0;0;0;0;0
6.3947541617116439;-0.00098017140329558438;0;0;0;0;0
6.4080488689085495;-0.001950903220161293;0;0;0;0;0
6.4213435761054551;-0.0029028467725445966;0;0;0;0;0
6.4346382833023608;-0.0038268343236509011;0;0;0;0;0
6.4479329904992664;-0.0047139673682599454;0;0;0;0;0
6.4612276976961729;-0.0055557023301960788;0;0;0;0;0
6.4745224048930785;-0.0063439328416364776;0;0;0;0;0
6.4878171120899841;-0.0070710678118654684;0;0;0;0;0
6.5011118192868897;-0.0077301045336273834;0;0;0;0;0
6.5144065264837954;-0.0083146961230254439;0;0;0;0;0
6.527701233680701;-0.008819212643483558;0;0;0;0;0
6.5409959408776066;-0.0092387953251128595;0;0;0;0;0
6.5542906480745122;-0.0095694033573220909;0;0;0;0;0
6.5675853552714178;-0.0098078528040322997;0;0;0;0;0
6.5808800624683235;-0.0099518472667219689;0;0;0;0;0
6.5941747696652291;-0.01;0;0;0;0;0
6.6074694768621356;-0.0099518472667219689;0;0;0;0;0
6.6207641840590412;-0.0098078528040322997;0;0;0;0;0
6.6340588912559468;-0.0095694033573220909;0;0;0;0;0
6.6473535984528525;-0.0092387953251128595;0;0;0;0;0
6.6606483056497581;-0.008819212643483558;0;0;0;0;0
6.6739430128466637;-0.0083146961230254439;0;0;0;0;0
6.6872377200435693;-0.007730104533627386;0;0;0;0;0
6.7005324272404749;-0.0070710678118654701;0;0;0;0;0
6.7138271344373806;-0.0063439328416364793;0;0;0;0;0
6.7271218416342862;-0.0055557023301960216;0;0;0;0;0
6.7404165488311927;-0.004713967368259948;0;0;0;0;0
6.7537112560280983;-0.0038268343236509033;0;0;0;0;0
6.7670059632250039;-0.0029028467725445988;0;0;0;0;0
6.7803006704219095;-0.0019509032201612954;0;0;0;0;0
6.7935953776188152;-0.00098017140329558676;0;0;0;0;0
6.8068900848157208;-1.9594348786357651e-17;0;0;0;0;0
6.8201847920126264;0.00098017140329561864;0;0;0;0;0
6.833479499209532;0.001950903220161257;0;0;0;0;0
6.8467742064064376;0.0029028467725446296;0;0;0;0;0
6.8600689136033433;0.0038268343236508673;0;0;0;0;0
6.8733636208002489;0.0047139673682599758;0;0;0;0;0
6.8866583279971554;0.0055557023301960485;0;0;0;0;0
6.899953035194061;0.0063439328416364498;0;0;0;0;0
6.9132477423909666;0.0070710678118654927;0;0;0;0;0
6.9265424495878722;0.00773010453362736;0;0;0;0;0
6.9398371567847779;0.008314696123025463;0;0;0;0;0
6.9531318639816835;0.0088192126434835406;0;0;0;0;0
6.9664265711785891;0.0092387953251128717;0;0;0;0;0
6.9797212783754947;0.0095694033573220805;0;0;0;0;0
6.9930159855724003;0.0098078528040323049;0;0;0;0;0
7.006310692769306;0.0099518472667219655;0;0;0;0;0
7.0196053999662125;0.01;0;0;0;0;0
7.0329001071631181;0.0099518472667219655;0;0;0;0;0
7.0461948143600237;0.0098078528040323066;0;0;0;0;0
7.0594895215569293;0.0095694033573220823;0;0;0;0;0
7.0727842287538349;0.0092387953251128734;0;0;0;0;0
7.0860789359507406;0.0088192126434835424;0;0;0;0;0
7.0993736431476462;0.0083146961230254647;0;0;0;0;0
7.1126683503445518;0.0077301045336273634;0;0;0;0;0
7.1259630575414574;0.0070710678118654962;0;0;0;0;0
7.139257764738363;0.0063439328416364524;0;0;0;0;0
7.1525524719352687;0.005555702330196052;0;0;0;0;0
7.1658471791321752;0.0047139673682599801;0;0;0;0;0
7.1791418863290808;0.0038268343236508716;0;0;0;0;0
7.1924365935259864;0.0029028467725446339;0;0;0;0;0
7.205731300722892;0.0019509032201612618;0;0;0;0;0
7.2190260079197976;0.00098017140329562341;0;0;0;0;0
7.2323207151167033;-1.4708141202500005e-17;0;0;0;0;0
7.2456154223136089;-0.00098017140329558199;0;0;0;0;0
7.2589101295105145;-0.0019509032201612906;0;0;0;0;0
7.2722048367074201;-0.002902846772544594;0;0;0;0;0
7.2854995439043257;-0.0038268343236508989;0;0;0;0;0
7.2987942511012323;-0.0047139673682600062;0;0;0;0;0
7.3120889582981379;-0.0055557023301960173;0;0;0;0;0
7.3253836654950435;-0.0063439328416364758;0;0;0;0;0
7.3386783726919491;-0.0070710678118654667;0;0;0;0;0
7.3519730798888547;-0.0077301045336273825;0;0;0;0;0
7.3652677870857604;-0.0083146961230254422;0;0;0;0;0
7.378562494282666;-0.0088192126434835563;0;0;0;0;0
7.3918572014795716;-0.0092387953251128578;0;0;0;0;0
7.4051519086764772;-0.0095694033573220909;0;0;0;0;0
7.4184466158733828;-0.0098078528040322979;0;0;0;0;0
7.4317413230702885;-0.0099518472667219689;0;0;0;0;0
7.445036030267195;-0.01;0;0;0;0;0
7.4583307374641006;-0.0099518472667219689;0;0;0;0;0
7.4716254446610062;-0.0098078528040322997;0;0;0;0;0
7.4849201518579118;-0.0095694033573220927;0;0;0;0;0
7.4982148590548174;-0.0092387953251128613;0;0;0;0;0
7.5115095662517231;-0.0088192126434835615;0;0;0;0;0
7.5248042734486287;-0.0083146961230254456;0;0;0;0;0
7.5380989806455343;-0.0077301045336273869;0;0;0;0;0
7.5513936878424399;-0.007071067811865471;0;0;0;0;0
7.5646883950393455;-0.0063439328416364819;0;0;0;0;0
7.577983102236252;-0.0055557023301960242;0;0;0;0;0
7.5912778094331577;-0.0047139673682599498;0;0;0;0;0
7.6045725166300633;-0.0038268343236509059;0;0;0;0;0
7.6178672238269689;-0.0029028467725446014;0;0;0;0;0
7.6311619310238745;-0.0019509032201612978;0;0;0;0;0
7.6444566382207801;-0.00098017140329558937;0;0;0;0;0
7.6577513454176858;-2.2043642384652358e-17;0;0;0;0;0
7.6710460526145914;0.00098017140329561604;0;0;0;0;0
7.684340759811497;0.0019509032201612544;0;0;0;0;0
7.6976354670084026;0.0029028467725446265;0;0;0;0;0
7.7109301742053091;0.0038268343236509306;0;0;0;0;0
7.7242248814022147;0.0047139673682599741;0;0;0;0;0
7.7375195885991204;0.0055557023301960459;0;0;0;0;0
7.750814295796026;0.0063439328416364472;0;0;0;0;0
7.7641090029929316;0.0070710678118654918;0;0;0;0;0
7.7774037101898372;0.0077301045336273591;0;0;0;0;0
7.7906984173867428;0.0083146961230254612;0;0;0;0;0
7.8039931245836485;0.0088192126434835389;0;0;0;0;0
7.8172878317805541;0.0092387953251128717;0;0;0;0;0
7.8305825389774597;0.0095694033573220788;0;0;0;0;0
7.8438772461743653;0.0098078528040323049;0;0;0;0;0
7.8571719533712718;0.0099518472667219724;0;0;0;0;0
7.8704666605681775;0.01;0;0;0;0;0
7.8837613677650831;0.0099518472667219655;0;0;0;0;0
7.8970560749619887;0.0098078528040323066;0;0;0;0;0
7.9103507821588943;0.0095694033573220823;0;0;0;0;0
7.9236454893557999;0.0092387953251128734;0;0;0;0;0
7.9369401965527056;0.0088192126434835441;0;0;0;0;0
7.9502349037496112;0.0083146961230254664;0;0;0;0;0
7.9635296109465168;0.007730104533627366;0;0;0;0;0
7.9768243181434224;0.0070710678118654979;0;0;0;0;0
7.9901190253403289;0.006343932841636455;0;0;0;0;0
8.0034137325372345;0.0055557023301959956;0;0;0;0;0
8.0167084397341402;0.0047139673682599819;0;0;0;0;0
8.0300031469310458;0.0038268343236508742;0;0;0;0;0
8.0432978541279514;0.0029028467725446361;0;0;0;0;0
8.056592561324857;0.0019509032201612641;0;0;0;0;0
8.0698872685217626;0.00098017140329562579;0;0;0;0;0
8.0831819757186683;-1.22588476042053e-17;0;0;0;0;0
8.0964766829155739;-0.00098017140329557961;0;0;0;0;0
8.1097713901124795;-0.001950903220161288;0;0;0;0;0
8.1230660973093851;-0.0029028467725445918;0;0;0;0;0
8.1363608045062907;-0.0038268343236508968;0;0;0;0;0
8.1496555117031964;-0.0047139673682599411;0;0;0;0;0
8.162950218900102;-0.0055557023301959566;0;0;0;0;0
8.1762449260970076;-0.0063439328416364186;0;0;0;0;0
8.1895396332939132;-0.0070710678118654146;0;0;0;0;0
8.2028343404908206;-0.0077301045336274259;0;0;0;0;0
8.2161290476877262;-0.0083146961230254803;0;0;0;0;0
8.2294237548846318;-0.0088192126434835892;0;0;0;0;0
8.2427184620815375;-0.0092387953251128838;0;0;0;0;0
8.2560131692784431;-0.00956940335732211;0;0;0;0;0
8.2693078764753487;-0.0098078528040323118;0;0;0;0;0
8.2826025836722543;-0.0099518472667219689;0;0;0;0;0
8.2958972908691599;-0.01;0;0;0;0;0
8.3091919980660656;-0.0099518472667219689;0;0;0;0;0
8.3224867052629712;-0.0098078528040322997;0;0;0;0;0
8.3357814124598768;-0.0095694033573220944;0;0;0;0;0
8.3490761196567824;-0.0092387953251128613;0;0;0;0;0
8.362370826853688;-0.0088192126434835615;0;0;0;0;0
8.3756655340505937;-0.0083146961230254474;0;0;0;0;0
8.3889602412474993;-0.0077301045336273886;0;0;0;0;0
8.4022549484444049;-0.0070710678118654736;0;0;0;0;0
8.4155496556413105;-0.0063439328416364828;0;0;0;0;0
8.4288443628382161;-0.0055557023301960849;0;0;0;0;0
8.4421390700351218;-0.0047139673682600148;0;0;0;0;0
8.4554337772320274;-0.0038268343236509735;0;0;0;0;0
8.468728484428933;-0.0029028467725446716;0;0;0;0;0
8.4820231916258404;-0.0019509032201612303;0;0;0;0;0
8.495317898822746;-0.00098017140329552106;0;0;0;0;0
8.5086126060196516;4.6561337593062961e-17;0;0;0;0;0
8.5219073132165573;0.00098017140329568434;0;0;0;0;0
8.5352020204134629;0.0019509032201613216;0;0;0;0;0
8.5484967276103685;0.0029028467725446244;0;0;0;0;0
8.5617914348072741;0.0038268343236509284;0;0;0;0;0
8.5750861420041797;0.0047139673682599715;0;0;0;0;0
8.5883808492010854;0.0055557023301960442;0;0;0;0;0
8.601675556397991;0.0063439328416364446;0;0;0;0;0
8.6149702635948966;0.0070710678118654892;0;0;0;0;0
8.6282649707918022;0.0077301045336273582;0;0;0;0;0
8.6415596779887078;0.0083146961230254595;0;0;0;0;0
8.6548543851856135;0.0088192126434835389;0;0;0;0;0
8.6681490923825191;0.0092387953251128439;0;0;0;0;0
8.6814437995794247;0.0095694033573220996;0;0;0;0;0
8.6947385067763303;0.0098078528040323049;0;0;0;0;0
8.7080332139732359;0.0099518472667219655;0;0;0;0;0
8.7213279211701416;0.01;0;0;0;0;0
8.7346226283670472;0.0099518472667219811;0;0;0;0;0
8.7479173355639528;0.0098078528040323083;0;0;0;0;0
8.7612120427608602;0.0095694033573220632;0;0;0;0;0
8.7745067499577658;0.0092387953251128491;0;0;0;0;0
8.7878014571546714;0.0088192126434835458;0;0;0;0;0
8.801096164351577;0.0083146961230253884;0;0;0;0;0
8.8143908715484827;0.0077301045336273209;0;0;0;0;0
8.8276855787453883;0.0070710678118654493;0;0;0;0;0
8.8409802859422939;0.0063439328416364576;0;0;0;0;0
8.8542749931391995;0.0055557023301960563;0;0;0;0;0
8.8675697003361051;0.0047139673682599212;0;0;0;0;0
8.8808644075330108;0.0038268343236508764;0;0;0;0;0
8.8941591147299164;0.0029028467725446391;0;0;0;0;0
8.907453821926822;0.0019509032201613361;0;0;0;0;0
8.9207485291237276;0.00098017140329555771;0;0;0;0;0
8.9340432363206332;-9.8095540059105926e-18;0;0;0;0;0
8.9473379435175389;-0.00098017140329557701;0;0;0;0;0
8.9606326507144445;-0.001950903220161216;0;0;0;0;0
8.9739273579113501;-0.0029028467725445211;0;0;0;0;0
8.9872220651082557;-0.0038268343236508946;0;0;0;0;0
9.0005167723051613;-0.0047139673682599385;0;0;0;0;0
9.013811479502067;-0.0055557023301959539;0;0;0;0;0
9.0271061866989726;-0.0063439328416363613;0;0;0;0;0
9.04040089389588;-0.0070710678118655638;0;0;0;0;0
9.0536956010927856;-0.0077301045336274242;0;0;0;0;0
9.0669903082896912;-0.0083146961230254786;0;0;0;0;0
9.0802850154865968;-0.0088192126434835545;0;0;0;0;0
9.0935797226835025;-0.0092387953251128561;0;0;0;0;0
9.1068744298804081;-0.00956940335732211;0;0;0;0;0
9.1201691370773137;-0.0098078528040323118;0;0;0;0;0
9.1334638442742193;-0.0099518472667219689;0;0;0;0;0
9.1467585514711249;-0.01;0;0;0;0;0
9.1600532586680306;-0.009951847266721962;0;0;0;0;0
9.1733479658649362;-0.0098078528040323014;0;0;0;0;0
9.1866426730618418;-0.0095694033573220944;0;0;0;0;0
9.1999373802587474;-0.009238795325112889;0;0;0;0;0
9.213232087455653;-0.0088192126434835285;0;0;0;0;0
9.2265267946525586;-0.0083146961230254491;0;0;0;0;0
9.2398215018494643;-0.0077301045336273903;0;0;0;0;0
9.2531162090463699;-0.0070710678118655257;0;0;0;0;0
9.2664109162432755;-0.0063439328416365409;0;0;0;0;0
9.2797056234401811;-0.0055557023301960277;0;0;0;0;0
9.2930003306370867;-0.0047139673682600174;0;0;0;0;0
9.3062950378339924;-0.0038268343236509757;0;0;0;0;0
9.3195897450308998;-0.0029028467725446057;0;0;0;0;0
9.3328844522278054;-0.0019509032201611631;0;0;0;0;0
9.346179159424711;-0.00098017140329552345;0;0;0;0;0
9.3594738666216166;4.4112043994768248e-17;0;0;0;0;0
9.3727685738185222;0.00098017140329561127;0;0;0;0;0
9.3860632810154279;0.0019509032201612498;0;0;0;0;0
9.3993579882123335;0.0029028467725446907;0;0;0;0;0
9.4126526954092391;0.0038268343236509262;0;0;0;0;0
9.4259474026061447;0.0047139673682599697;0;0;0;0;0
9.4392421098030503;0.0055557023301959834;0;0;0;0;0
9.452536816999956;0.0063439328416364984;0;0;0;0;0
9.4658315241968616;0.0070710678118654866;0;0;0;0;0
9.4791262313937672;0.0077301045336273556;0;0;0;0;0
9.4924209385906728;0.0083146961230254196;0;0;0;0;0
9.5057156457875784;0.0088192126434835701;0;0;0;0;0
9.5190103529844841;0.0092387953251128682;0;0;0;0;0
9.5323050601813897;0.0095694033573220788;0;0;0;0;0
9.5455997673782953;0.0098078528040322892;0;0;0;0;0
9.5588944745752009;0.0099518472667219585;0;0;0;0;0
9.5721891817721065;0.01;0;0;0;0;0
9.5854838889690139;0.0099518472667219603;0;0;0;0;0
9.5987785961659196;0.0098078528040322945;0;0;0;0;0
9.6120733033628252;0.009569403357322084;0;0;0;0;0
9.6253680105597308;0.0092387953251128214;0;0;0;0;0
9.6386627177566364;0.0088192126434835129;0;0;0;0;0
9.651957424953542;0.00831469612302543;0;0;0;0;0
9.6652521321504477;0.0077301045336273678;0;0;0;0;0
9.6785468393473533;0.0070710678118655014;0;0;0;0;0
9.6918415465442589;0.0063439328416364038;0;0;0;0;0
9.7051362537411645;0.0055557023301959999;0;0;0;0;0
9.7184309609380701;0.0047139673682599862;0;0;0;0;0
9.7317256681349757;0.003826834323650944;0;0;0;0;0
9.7450203753318814;0.0029028467725445727;0;0;0;0;0
9.758315082528787;0.0019509032201612689;0;0;0;0;0
9.7716097897256926;0.00098017140329563078;0;0;0;0;0
9.7849044969225982;6.3694013168394139e-17;0;0;0;0;0
9.7981992041195038;-0.00098017140329550393;0;0;0;0;0
9.8114939113164095;-0.0019509032201612834;0;0;0;0;0
9.8247886185133151;-0.0029028467725445875;0;0;0;0;0
9.8380833257102207;-0.0038268343236508265;0;0;0;0;0
9.8513780329071263;-0.0047139673682598743;0;0;0;0;0
9.8646727401040337;-0.0055557023301961292;0;0;0;0;0
9.8779674473009393;-0.0063439328416365253;0;0;0;0;0
9.891262154497845;-0.0070710678118655118;0;0;0;0;0
9.9045568616947506;-0.0077301045336273782;0;0;0;0;0
9.9178515688916562;-0.0083146961230254387;0;0;0;0;0
9.9311462760885618;-0.0088192126434835857;0;0;0;0;0
9.9444409832854674;-0.0092387953251128821;0;0;0;0;0
9.9577356904823731;-0.0095694033573220892;0;0;0;0;0
9.9710303976792787;-0.0098078528040322962;0;0;0;0;0
9.9843251048761843;-0.0099518472667219759;0;0;0;0;0
9.9976198120730899;-0.01;0;0;0;0;0
10.010914519269996;-0.0099518472667219707;0;0;0;0;0
10.024209226466901;-0.0098078528040323153;0;0;0;0;0
10.037503933663807;-0.0095694033573220736;0;0;0;0;0
10.050798640860712;-0.009238795325112863;0;0;0;0;0
10.064093348057618;-0.0088192126434835632;0;0;0;0;0
10.077388055254524;-0.008314696123025489;0;0;0;0;0
10.090682762451429;-0.0077301045336274363;0;0;0;0;0
10.103977469648335;-0.0070710678118654771;0;0;0;0;0
10.11727217684524;-0.0063439328416364871;0;0;0;0;0
10.130566884042146;-0.0055557023301960893;0;0;0;0;0
10.143861591239054;-0.0047139673682599567;0;0;0;0;0
10.157156298435959;-0.0038268343236507814;0;0;0;0;0
10.170451005632865;-0.0029028467725445402;0;0;0;0;0
10.18374571282977;-0.0019509032201612353;0;0;0;0;0
10.197040420026676;-0.00098017140329559652;0;0;0;0;0
10.210335127223582;-2.9391523179536474e-17;0;0;0;0;0
10.223629834420487;0.00098017140329567957;0;0;0;0;0
10.236924541617393;0.0019509032201613168;0;0;0;0;0
10.250219248814298;0.00290284677254462;0;0;0;0;0
10.263513956011204;0.0038268343236508577;0;0;0;0;0
10.27680866320811;0.0047139673682600296;0;0;0;0;0
10.290103370405015;0.0055557023301960398;0;0;0;0;0
10.303398077601921;0.006343932841636442;0;0;0;0;0
10.316692784798827;0.0070710678118654363;0;0;0;0;0
10.329987491995732;0.007730104533627399;0;0;0;0;0
10.343282199192638;0.0083146961230254578;0;0;0;0;0
10.356576906389543;0.0088192126434835354;0;0;0;0;0
10.369871613586449;0.0092387953251128405;0;0;0;0;0
10.383166320783355;0.009569403357322058;0;0;0;0;0
10.39646102798026;0.0098078528040323031;0;0;0;0;0
10.409755735177166;0.0099518472667219655;0;0;0;0;0
10.423050442374073;0.01;0;0;0;0;0
10.436345149570979;0.0099518472667219672;0;0;0;0;0
10.449639856767885;0.0098078528040322806;0;0;0;0;0
10.46293456396479;0.0095694033573220632;0;0;0;0;0
10.476229271161696;0.0092387953251128509;0;0;0;0;0
10.489523978358601;0.0088192126434835476;0;0;0;0;0
10.502818685555507;0.0083146961230254699;0;0;0;0;0
10.516113392752413;0.0077301045336273244;0;0;0;0;0
10.529408099949318;0.0070710678118654528;0;0;0;0;0
10.542702807146224;0.0063439328416364602;0;0;0;0;0
10.555997514343129;0.0055557023301960606;0;0;0;0;0
10.569292221540035;0.0047139673682599264;0;0;0;0;0
10.582586928736941;0.0038268343236508807;0;0;0;0;0
10.595881635933846;0.0029028467725446434;0;0;0;0;0
10.609176343130752;0.0019509032201613411;0;0;0;0;0
10.622471050327658;0.00098017140329570386;0;0;0;0;0
10.635765757524563;-4.9109668093211799e-18;0;0;0;0;0
10.649060464721469;-0.00098017140329557224;0;0;0;0;0
10.662355171918374;-0.0019509032201612112;0;0;0;0;0
