#Time;LinearAccX;LinearAccY;LinearAccZ;AngularAccX;AngularAccY;AngularAccZ
0;0;0;0;0;0;0
0.090699578504174011;0.00098017140329560606;0;0;0;0;0
0.18139915700834802;0.0019509032201612826;0;0;0;0;0
0.27209873551252206;0.0029028467725446235;0;0;0;0;0
0.36279831401669604;0.0038268343236508981;0;0;0;0;0
0.45349789252087003;0.0047139673682599758;0;0;0;0;0
0.54419747102504412;0.0055557023301960216;0;0;0;0;0
0.6348970495292181;0.006343932841636455;0;0;0;0;0
0.72559662803339209;0.0070710678118654745;0;0;0;0;0
0.81629620653756607;0.0077301045336273687;0;0;0;0;0
0.90699578504174005;0.0083146961230254508;0;0;0;0;0
0.99769536354591415;0.0088192126434835493;0;0;0;0;0
1.0883949420500882;0.0092387953251128682;0;0;0;0;0
1.1790945205542622;0.0095694033573220892;0;0;0;0;0
1.2697940990584362;0.0098078528040323049;0;0;0;0;0
1.3604936775626102;0.0099518472667219689;0;0;0;0;0
1.4511932560667842;0.01;0;0;0;0;0
1.5418928345709582;0.0099518472667219689;0;0;0;0;0
1.6325924130751321;0.0098078528040323049;0;0;0;0;0
1.7232919915793061;0.0095694033573220892;0;0;0;0;0
1.8139915700834801;0.0092387953251128682;0;0;0;0;0
1.9046911485876543;0.0088192126434835511;0;0;0;0;0
1.9953907270918283;0.0083146961230254543;0;0;0;0;0
2.0860903055960023;0.0077301045336273713;0;0;0;0;0
2.1767898841001765;0.0070710678118654762;0;0;0;0;0
2.2674894626043502;0.0063439328416364585;0;0;0;0;0
2.3581890411085245;0.0055557023301960216;0;0;0;0;0
2.4488886196126982;0.0047139673682599784;0;0;0;0;0
2.5395881981168724;0.0038268343236508989;0;0;0;0;0
2.6302877766210462;0.0029028467725446278;0;0;0;0;0
2.7209873551252204;0.001950903220161286;0;0;0;0;0
2.8116869336293941;0.00098017140329561278;0;0;0;0;0
2.9023865121335684;1.2246467991473532e-18;0;0;0;0;0
2.9930860906377426;-0.00098017140329560585;0;0;0;0;0
3.0837856691419163;-0.0019509032201612791;0;0;0;0;0
3.1744852476460905;-0.0029028467725446213;0;0;0;0;0
3.2651848261502643;-0.0038268343236508924;0;0;0;0;0
3.3558844046544385;-0.0047139673682599767;0;0;0;0;0
3.4465839831586123;-0.0055557023301960199;0;0;0;0;0
3.5372835616627865;-0.0063439328416364524;0;0;0;0;0
3.6279831401669602;-0.007071067811865471;0;0;0;0;0
3.7186827186711344;-0.0077301045336273669;0;0;0;0;0
3.8093822971753086;-0.0083146961230254526;0;0;0;0;0
3.9000818756794824;-0.0088192126434835493;0;0;0;0;0
3.9907814541836566;-0.0092387953251128647;0;0;0;0;0
4.0814810326878304;-0.0095694033573220857;0;0;0;0;0
4.1721806111920046;-0.0098078528040323031;0;0;0;0;0
4.2628801896961788;-0.0099518472667219689;0;0;0;0;0
4.353579768200353;-0.01;0;0;0;0;0
4.4442793467045263;-0.0099518472667219689;0;0;0;0;0
4.5349789252087005;-0.0098078528040323066;0;0;0;0;0
4.6256785037128747;-0.0095694033573220892;0;0;0;0;0
4.7163780822170489;-0.0092387953251128665;0;0;0;0;0
4.8070776607212222;-0.0088192126434835545;0;0;0;0;0
4.8977772392253964;-0.0083146961230254543;0;0;0;0;0
4.9884768177295706;-0.0077301045336273747;0;0;0;0;0
5.0791763962337448;-0.0070710678118654771;0;0;0;0;0
5.169875974737919;-0.0063439328416364524;0;0;0;0;0
5.2605755532420924;-0.0055557023301960294;0;0;0;0;0
5.3512751317462666;-0.0047139673682599793;0;0;0;0;0
5.4419747102504408;-0.0038268343236509041;0;0;0;0;0
5.532674288754615;-0.0029028467725446252;0;0;0;0;0
5.6233738672587883;-0.0019509032201612958;0;0;0;0;0
5.7140734457629625;-0.00098017140329561387;0;0;0;0;0
5.8047730242671367;-2.4492935982947064e-18;0;0;0;0;0
5.8954726027713109;0.00098017140329560021;0;0;0;0;0
5.9861721812754851;0.0019509032201612826;0;0;0;0;0
6.0768717597796584;0.0029028467725446118;0;0;0;0;0
6.1675713382838326;0.0038268343236508911;0;0;0;0;0
6.2582709167880068;0.0047139673682599758;0;0;0;0;0
6.348970495292181;0.0055557023301960181;0;0;0;0;0
6.4396700737963544;0.0063439328416364481;0;0;0;0;0
6.5303696523005286;0.0070710678118654667;0;0;0;0;0
6.6210692308047028;0.007730104533627366;0;0;0;0;0
6.711768809308877;0.0083146961230254526;0;0;0;0;0
6.8024683878130512;0.0088192126434835493;0;0;0;0;0
6.8931679663172245;0.0092387953251128647;0;0;0;0;0
6.9838675448213987;0.0095694033573220857;0;0;0;0;0
7.0745671233255729;0.0098078528040323031;0;0;0;0;0
7.1652667018297471;0.0099518472667219689;0;0;0;0;0
7.2559662803339204;0.01;0;0;0;0;0
7.3466658588380946;0.0099518472667219689;0;0;0;0;0
7.4373654373422688;0.0098078528040323066;0;0;0;0;0
7.5280650158464431;0.0095694033573220927;0;0;0;0;0
7.6187645943506173;0.0092387953251128682;0;0;0;0;0
7.7094641728547906;0.0088192126434835597;0;0;0;0;0
7.8001637513589648;0.008314696123025456;0;0;0;0;0
7.890863329863139;0.0077301045336273756;0;0;0;0;0
7.9815629083673132;0.007071067811865484;0;0;0;0;0
8.0722624868714874;0.0063439328416364541;0;0;0;0;0
8.1629620653756607;0.005555702330196039;0;0;0;0;0
8.2536616438798358;0.0047139673682599801;0;0;0;0;0
8.3443612223840091;0.003826834323650905;0;0;0;0;0
8.4350608008881824;0.0029028467725446343;0;0;0;0;0
8.5257603793923575;0.0019509032201612798;0;0;0;0;0
8.6164599578965309;0.00098017140329562406;0;0;0;0;0
8.7071595364007059;3.6739403974420592e-18;0;0;0;0;0
8.7978591149048793;-0.00098017140329559891;0;0;0;0;0
8.8885586934090526;-0.0019509032201612726;0;0;0;0;0
8.9792582719132277;-0.0029028467725446278;0;0;0;0;0
9.069957850417401;-0.003826834323650882;0;0;0;0;0
9.1606574289215743;-0.0047139673682599584;0;0;0;0;0
9.2513570074257494;-0.0055557023301960173;0;0;0;0;0
9.3420565859299227;-0.0063439328416364472;0;0;0;0;0
9.4327561644340978;-0.0070710678118654788;0;0;0;0;0
9.5234557429382711;-0.0077301045336273591;0;0;0;0;0
9.6141553214424444;-0.0083146961230254422;0;0;0;0;0
9.7048548999466195;-0.0088192126434835493;0;0;0;0;0
9.7955544784507929;-0.0092387953251128647;0;0;0;0;0
9.886254056954968;-0.0095694033573220909;0;0;0;0;0
9.9769536354591413;-0.0098078528040323014;0;0;0;0;0
10.067653213963315;-0.0099518472667219672;0;0;0;0;0
10.15835279246749;-0.01;0;0;0;0;0
10.249052370971663;-0.0099518472667219689;0;0;0;0;0
10.339751949475838;-0.0098078528040323031;0;0;0;0;0
10.430451527980011;-0.0095694033573220927;0;0;0;0;0
10.521151106484185;-0.0092387953251128734;0;0;0;0;0
10.61185068498836;-0.0088192126434835511;0;0;0;0;0
10.702550263492533;-0.008314696123025456;0;0;0;0;0
10.793249841996706;-0.0077301045336273877;0;0;0;0;0
10.883949420500882;-0.0070710678118654849;0;0;0;0;0
10.974648999005055;-0.006343932841636468;0;0;0;0;0
11.06534857750923;-0.0055557023301960242;0;0;0;0;0
11.156048156013403;-0.0047139673682599819;0;0;0;0;0
11.246747734517577;-0.0038268343236509228;0;0;0;0;0
11.337447313021752;-0.0029028467725446356;0;0;0;0;0
11.428146891525925;-0.0019509032201612984;0;0;0;0;0
11.5188464700301;-0.00098017140329560758;0;0;0;0;0
11.609546048534273;-4.8985871965894128e-18;0;0;0;0;0
11.700245627038447;0.00098017140329558004;0;0;0;0;0
11.790945205542622;0.0019509032201612715;0;0;0;0;0
11.881644784046795;0.0029028467725446096;0;0;0;0;0
11.97234436255097;0.0038268343236508972;0;0;0;0;0
12.063043941055144;0.0047139673682599732;0;0;0;0;0
12.153743519559317;0.0055557023301960017;0;0;0;0;0
12.244443098063492;0.0063439328416364472;0;0;0;0;0
12.335142676567665;0.0070710678118654658;0;0;0;0;0
12.42584225507184;0.0077301045336273704;0;0;0;0;0
12.516541833576014;0.0083146961230254508;0;0;0;0;0
12.607241412080187;0.0088192126434835389;0;0;0;0;0
12.697940990584362;0.0092387953251128647;0;0;0;0;0
12.788640569088535;0.0095694033573220857;0;0;0;0;0
12.879340147592709;0.0098078528040323014;0;0;0;0;0
12.970039726096884;0.0099518472667219689;0;0;0;0;0
13.060739304601057;0.01;0;0;0;0;0
13.151438883105232;0.0099518472667219689;0;0;0;0;0
13.242138461609406;0.0098078528040323066;0;0;0;0;0
13.332838040113579;0.0095694033573220927;0;0;0;0;0
13.423537618617754;0.0092387953251128682;0;0;0;0;0
13.514237197121927;0.0088192126434835615;0;0;0;0;0
13.604936775626102;0.0083146961230254578;0;0;0;0;0
13.695636354130276;0.0077301045336273765;0;0;0;0;0
13.786335932634449;0.0070710678118654858;0;0;0;0;0
13.877035511138624;0.006343932841636455;0;0;0;0;0
13.967735089642797;0.0055557023301960398;0;0;0;0;0
14.058434668146973;0.0047139673682599827;0;0;0;0;0
14.149134246651146;0.0038268343236509072;0;0;0;0;0
14.239833825155319;0.0029028467725446365;0;0;0;0;0
14.330533403659494;0.0019509032201612995;0;0;0;0;0
14.421232982163668;0.00098017140329562645;0;0;0;0;0
14.511932560667841;2.388680238973927e-17;0;0;0;0;0
14.602632139172016;-0.00098017140329559652;0;0;0;0;0
14.693331717676189;-0.00195090322016127;0;0;0;0;0
14.784031296180364;-0.0029028467725446083;0;0;0;0;0
14.874730874684538;-0.0038268343236508794;0;0;0;0;0
14.965430453188711;-0.0047139673682599567;0;0;0;0;0
15.056130031692886;-0.0055557023301960008;0;0;0;0;0
15.146829610197059;-0.0063439328416364316;0;0;0;0;0
15.237529188701235;-0.0070710678118654771;0;0;0;0;0
15.328228767205408;-0.0077301045336273687;0;0;0;0;0
15.418928345709581;-0.00831469612302543;0;0;0;0;0
15.509627924213756;-0.0088192126434835476;0;0;0;0;0
15.60032750271793;-0.009238795325112863;0;0;0;0;0
15.691027081222105;-0.0095694033573220857;0;0;0;0;0
15.781726659726278;-0.0098078528040323014;0;0;0;0;0
15.872426238230451;-0.0099518472667219672;0;0;0;0;0
15.963125816734626;-0.01;0;0;0;0;0
16.0538253952388;-0.0099518472667219724;0;0;0;0;0
16.144524973742975;-0.0098078528040323031;0;0;0;0;0
16.235224552247146;-0.0095694033573220979;0;0;0;0;0
16.325924130751321;-0.0092387953251128821;0;0;0;0;0
16.416623709255497;-0.0088192126434835528;0;0;0;0;0
16.507323287759672;-0.0083146961230254578;0;0;0;0;0
16.598022866263843;-0.0077301045336273782;0;0;0;0;0
16.688722444768018;-0.0070710678118654866;0;0;0;0;0
16.779422023272193;-0.0063439328416364706;0;0;0;0;0
16.870121601776365;-0.0055557023301960407;0;0;0;0;0
16.96082118028054;-0.0047139673682599992;0;0;0;0;0
17.051520758784715;-0.0038268343236508924;0;0;0;0;0
17.142220337288887;-0.0029028467725446551;0;0;0;0;0
17.232919915793062;-0.0019509032201613181;0;0;0;0;0
17.323619494297237;-0.00098017140329560997;0;0;0;0;0
17.414319072801412;-7.3478807948841184e-18;0;0;0;0;0
17.505018651305583;0.00098017140329559544;0;0;0;0;0
17.595718229809759;0.0019509032201612689;0;0;0;0;0
17.686417808313934;0.0029028467725446074;0;0;0;0;0
17.777117386818105;0.0038268343236508785;0;0;0;0;0
17.86781696532228;0.0047139673682599558;0;0;0;0;0
17.958516543826455;0.0055557023301960285;0;0;0;0;0
18.049216122330627;0.0063439328416364316;0;0;0;0;0
18.139915700834802;0.0070710678118654511;0;0;0;0;0
18.230615279338977;0.0077301045336273678;0;0;0;0;0
18.321314857843149;0.00831469612302543;0;0;0;0;0
18.412014436347324;0.0088192126434835458;0;0;0;0;0
18.502714014851499;0.009238795325112863;0;0;0;0;0
18.593413593355674;0.009569403357322084;0;0;0;0;0
18.684113171859845;0.0098078528040323014;0;0;0;0;0
18.774812750364021;0.0099518472667219672;0;0;0;0;0
18.865512328868196;0.01;0;0;0;0;0
18.956211907372367;0.0099518472667219724;0;0;0;0;0
19.046911485876542;0.0098078528040323118;0;0;0;0;0
19.137611064380717;0.0095694033573220892;0;0;0;0;0
19.228310642884889;0.0092387953251128838;0;0;0;0;0
19.319010221389064;0.0088192126434835545;0;0;0;0;0
19.409709799893239;0.0083146961230254578;0;0;0;0;0
19.500409378397411;0.0077301045336274016;0;0;0;0;0
19.591108956901586;0.0070710678118654866;0;0;0;0;0
19.681808535405761;0.0063439328416364706;0;0;0;0;0
19.772508113909936;0.0055557023301960129;0;0;0;0;0
19.863207692414107;0.0047139673682600001;0;0;0;0;0
19.953907270918283;0.0038268343236509262;0;0;0;0;0
20.044606849422458;0.0029028467725446222;0;0;0;0;0
20.135306427926629;0.0019509032201613194;0;0;0;0;0
20.226006006430804;0.00098017140329561127;0;0;0;0;0
20.316705584934979;8.572527594031472e-18;0;0;0;0;0
20.407405163439151;-0.00098017140329555879;0;0;0;0;0
20.498104741943326;-0.0019509032201612678;0;0;0;0;0
20.588804320447501;-0.0029028467725446057;0;0;0;0;0
20.679503898951676;-0.0038268343236509102;0;0;0;0;0
20.770203477455848;-0.0047139673682599541;0;0;0;0;0
20.860903055960023;-0.0055557023301959982;0;0;0;0;0
20.951602634464198;-0.0063439328416364576;0;0;0;0;0
21.042302212968369;-0.0070710678118654502;0;0;0;0;0
21.133001791472545;-0.0077301045336273678;0;0;0;0;0
21.22370136997672;-0.0083146961230254491;0;0;0;0;0
21.314400948480891;-0.0088192126434835285;0;0;0;0;0
21.405100526985066;-0.009238795325112863;0;0;0;0;0
21.495800105489241;-0.009569403357322084;0;0;0;0;0
21.586499683993413;-0.0098078528040322927;0;0;0;0;0
21.677199262497588;-0.0099518472667219672;0;0;0;0;0
21.767898841001763;-0.01;0;0;0;0;0
21.858598419505938;-0.0099518472667219689;0;0;0;0;0
21.94929799801011;-0.0098078528040323118;0;0;0;0;0
22.039997576514285;-0.0095694033573220996;0;0;0;0;0
22.13069715501846;-0.00923879532511287;0;0;0;0;0
22.221396733522631;-0.0088192126434835701;0;0;0;0;0
22.312096312026807;-0.0083146961230254595;0;0;0;0;0
22.402795890530982;-0.0077301045336273791;0;0;0;0;0
22.493495469035153;-0.0070710678118655135;0;0;0;0;0
22.584195047539328;-0.0063439328416364715;0;0;0;0;0
22.674894626043503;-0.0055557023301960433;0;0;0;0;0
22.765594204547678;-0.0047139673682599706;0;0;0;0;0
22.85629378305185;-0.0038268343236509271;0;0;0;0;0
22.946993361556025;-0.0029028467725446573;0;0;0;0;0
23.0376929400602;-0.0019509032201612858;0;0;0;0;0
23.128392518564372;-0.00098017140329564791;0;0;0;0;0
23.219092097068547;-9.7971743931788255e-18;0;0;0;0;0
23.309791675572722;0.00098017140329559284;0;0;0;0;0
23.400491254076893;0.0019509032201612318;0;0;0;0;0
23.491190832581069;0.0029028467725446044;0;0;0;0;0
23.581890411085244;0.0038268343236508764;0;0;0;0;0
23.672589989589415;0.0047139673682599532;0;0;0;0;0
23.76328956809359;0.0055557023301959973;0;0;0;0;0
23.853989146597765;0.0063439328416364299;0;0;0;0;0
23.94468872510194;0.0070710678118654745;0;0;0;0;0
24.035388303606112;0.0077301045336273444;0;0;0;0;0
24.126087882110287;0.0083146961230254474;0;0;0;0;0
24.216787460614462;0.0088192126434835458;0;0;0;0;0
24.307487039118634;0.0092387953251128491;0;0;0;0;0
24.398186617622809;0.009569403357322084;0;0;0;0;0
24.488886196126984;0.0098078528040322997;0;0;0;0;0
24.579585774631155;0.0099518472667219655;0;0;0;0;0
24.670285353135331;0.01;0;0;0;0;0
24.760984931639506;0.0099518472667219724;0;0;0;0;0
24.851684510143681;0.0098078528040323049;0;0;0;0;0
24.942384088647852;0.0095694033573220996;0;0;0;0;0
25.033083667152027;0.00923879532511287;0;0;0;0;0
25.123783245656202;0.0088192126434835545;0;0;0;0;0
25.214482824160374;0.0083146961230254786;0;0;0;0;0
25.305182402664549;0.0077301045336273799;0;0;0;0;0
25.395881981168724;0.0070710678118654892;0;0;0;0;0
25.486581559672896;0.0063439328416364724;0;0;0;0;0
25.577281138177071;0.0055557023301960442;0;0;0;0;0
25.667980716681246;0.0047139673682600027;0;0;0;0;0
25.758680295185417;0.0038268343236509284;0;0;0;0;0
25.849379873689593;0.0029028467725446582;0;0;0;0;0
25.940079452193768;0.0019509032201612869;0;0;0;0;0
26.030779030697943;0.00098017140329561365;0;0;0;0;0
26.121478609202114;4.6548957980331189e-17;0;0;0;0;0
26.212178187706289;-0.00098017140329559175;0;0;0;0;0
26.302877766210464;-0.0019509032201612652;0;0;0;0;0
26.393577344714636;-0.0029028467725446035;0;0;0;0;0
26.484276923218811;-0.0038268343236508751;0;0;0;0;0
26.574976501722986;-0.0047139673682599524;0;0;0;0;0
26.665676080227158;-0.0055557023301959964;0;0;0;0;0
26.756375658731333;-0.0063439328416364281;0;0;0;0;0
26.847075237235508;-0.0070710678118654736;0;0;0;0;0
26.937774815739683;-0.007730104533627366;0;0;0;0;0
27.028474394243855;-0.0083146961230254283;0;0;0;0;0
27.11917397274803;-0.0088192126434835441;0;0;0;0;0
27.209873551252205;-0.0092387953251128613;0;0;0;0;0
27.300573129756376;-0.0095694033573220736;0;0;0;0;0
27.391272708260551;-0.0098078528040322997;0;0;0;0;0
27.481972286764726;-0.0099518472667219655;0;0;0;0;0
27.572671865268898;-0.01;0;0;0;0;0
27.663371443773073;-0.0099518472667219724;0;0;0;0;0
27.754071022277248;-0.0098078528040323049;0;0;0;0;0
27.84477060078142;-0.0095694033573221014;0;0;0;0;0
27.935470179285595;-0.0092387953251128838;0;0;0;0;0
28.02616975778977;-0.0088192126434835545;0;0;0;0;0
28.116869336293945;-0.0083146961230254595;0;0;0;0;0
28.207568914798117;-0.0077301045336274033;0;0;0;0;0
28.298268493302292;-0.0070710678118654901;0;0;0;0;0
28.388968071806467;-0.0063439328416364741;0;0;0;0;0
28.479667650310638;-0.005555702330196045;0;0;0;0;0
28.570367228814813;-0.0047139673682600036;0;0;0;0;0
28.661066807318988;-0.0038268343236509297;0;0;0;0;0
28.75176638582316;-0.0029028467725446599;0;0;0;0;0
28.842465964327335;-0.0019509032201613231;0;0;0;0;0
28.93316554283151;-0.00098017140329561495;0;0;0;0;0
29.023865121335682;-4.777360477947854e-17;0;0;0;0;0
