#Time;LinearAccX;LinearAccY;LinearAccZ;AngularAccX;AngularAccY;AngularAccZ
0;0;0;0;0;0;0
0.0096882904914988022;0.00098017140329560606;0;0;0;0;0
0.019376580982997604;0.0019509032201612826;0;0;0;0;0
0.029064871474496407;0.0029028467725446235;0;0;0;0;0
0.038753161965995209;0.0038268343236508981;0;0;0;0;0
0.048441452457494011;0.0047139673682599758;0;0;0;0;0
0.058129742948992813;0.0055557023301960216;0;0;0;0;0
0.067818033440491615;0.006343932841636455;0;0;0;0;0
0.077506323931990417;0.0070710678118654745;0;0;0;0;0
0.08719461442348922;0.0077301045336273687;0;0;0;0;0
0.096882904914988022;0.0083146961230254508;0;0;0;0;0
0.10657119540648682;0.0088192126434835493;0;0;0;0;0
0.11625948589798563;0.0092387953251128682;0;0;0;0;0
0.12594777638948443;0.0095694033573220892;0;0;0;0;0
0.13563606688098323;0.0098078528040323049;0;0;0;0;0
0.14532435737248203;0.0099518472667219689;0;0;0;0;0
0.15501264786398083;0.01;0;0;0;0;0
0.16470093835547964;0.0099518472667219689;0;0;0;0;0
0.17438922884697844;0.0098078528040323049;0;0;0;0;0
0.18407751933847724;0.0095694033573220892;0;0;0;0;0
0.19376580982997604;0.0092387953251128682;0;0;0;0;0
0.20345410032147485;0.0088192126434835528;0;0;0;0;0
0.21314239081297365;0.0083146961230254543;0;0;0;0;0
0.22283068130447245;0.0077301045336273713;0;0;0;0;0
0.23251897179597125;0.0070710678118654762;0;0;0;0;0
0.24220726228747005;0.0063439328416364585;0;0;0;0;0
0.25189555277896886;0.0055557023301960251;0;0;0;0;0
0.26158384327046769;0.0047139673682599784;0;0;0;0;0
0.27127213376196646;0.0038268343236508989;0;0;0;0;0
0.28096042425346524;0.0029028467725446278;0;0;0;0;0
0.29064871474496407;0.001950903220161286;0;0;0;0;0
0.3003370052364629;0.00098017140329560823;0;0;0;0;0
0.31002529572796167;1.2246467991473532e-18;0;0;0;0;0
0.31971358621946044;-0.00098017140329560151;0;0;0;0;0
0.32940187671095927;-0.0019509032201612791;0;0;0;0;0
0.3390901672024581;-0.0029028467725446213;0;0;0;0;0
0.34877845769395688;-0.0038268343236508924;0;0;0;0;0
0.35846674818545565;-0.0047139673682599723;0;0;0;0;0
0.36815503867695448;-0.0055557023301960199;0;0;0;0;0
0.37784332916845331;-0.0063439328416364524;0;0;0;0;0
0.38753161965995209;-0.007071067811865471;0;0;0;0;0
0.39721991015145086;-0.0077301045336273669;0;0;0;0;0
0.40690820064294969;-0.0083146961230254474;0;0;0;0;0
0.41659649113444852;-0.0088192126434835493;0;0;0;0;0
0.4262847816259473;-0.0092387953251128647;0;0;0;0;0
0.43597307211744607;-0.0095694033573220857;0;0;0;0;0
0.4456613626089449;-0.0098078528040323031;0;0;0;0;0
0.45534965310044373;-0.0099518472667219689;0;0;0;0;0
0.4650379435919425;-0.01;0;0;0;0;0
0.47472623408344128;-0.0099518472667219689;0;0;0;0;0
0.48441452457494011;-0.0098078528040323066;0;0;0;0;0
0.49410281506643894;-0.0095694033573220892;0;0;0;0;0
0.50379110555793771;-0.00923879532511287;0;0;0;0;0
0.51347939604943649;-0.0088192126434835545;0;0;0;0;0
0.52316768654093537;-0.0083146961230254543;0;0;0;0;0
0.53285597703243415;-0.0077301045336273687;0;0;0;0;0
0.54254426752393292;-0.0070710678118654771;0;0;0;0;0
0.5522325580154317;-0.0063439328416364594;0;0;0;0;0
0.56192084850693047;-0.0055557023301960294;0;0;0;0;0
0.57160913899842936;-0.0047139673682599793;0;0;0;0;0
0.58129742948992813;-0.0038268343236509041;0;0;0;0;0
0.5909857199814269;-0.0029028467725446335;0;0;0;0;0
0.60067401047292579;-0.0019509032201612873;0;0;0;0;0
0.61036230096442456;-0.00098017140329561387;0;0;0;0;0
0.62005059145592334;-2.4492935982947064e-18;0;0;0;0;0
0.62973888194742211;0.00098017140329560021;0;0;0;0;0
0.63942717243892089;0.0019509032201612737;0;0;0;0;0
0.64911546293041977;0.00290284677254462;0;0;0;0;0
0.65880375342191855;0.0038268343236508911;0;0;0;0;0
0.66849204391341732;0.004713967368259968;0;0;0;0;0
0.67818033440491621;0.0055557023301960181;0;0;0;0;0
0.68786862489641498;0.0063439328416364481;0;0;0;0;0
0.69755691538791376;0.0070710678118654667;0;0;0;0;0
0.70724520587941253;0.007730104533627366;0;0;0;0;0
0.71693349637091131;0.0083146961230254474;0;0;0;0;0
0.72662178686241019;0.0088192126434835493;0;0;0;0;0
0.73631007735390896;0.0092387953251128647;0;0;0;0;0
0.74599836784540774;0.0095694033573220857;0;0;0;0;0
0.75568665833690662;0.0098078528040323031;0;0;0;0;0
0.7653749488284054;0.0099518472667219689;0;0;0;0;0
0.77506323931990417;0.01;0;0;0;0;0
0.78475152981140295;0.0099518472667219707;0;0;0;0;0
0.79443982030290172;0.0098078528040323066;0;0;0;0;0
0.80412811079440061;0.0095694033573220927;0;0;0;0;0
0.81381640128589938;0.0092387953251128734;0;0;0;0;0
0.82350469177739816;0.0088192126434835597;0;0;0;0;0
0.83319298226889704;0.008314696123025456;0;0;0;0;0
0.84288127276039582;0.0077301045336273756;0;0;0;0;0
0.85256956325189459;0.007071067811865484;0;0;0;0;0
0.86225785374339337;0.0063439328416364672;0;0;0;0;0
0.87194614423489214;0.005555702330196039;0;0;0;0;0
0.88163443472639103;0.0047139673682599801;0;0;0;0;0
0.8913227252178898;0.003826834323650905;0;0;0;0;0
0.90101101570938857;0.0029028467725446343;0;0;0;0;0
0.91069930620088746;0.0019509032201612798;0;0;0;0;0
0.92038759669238623;0.00098017140329560628;0;0;0;0;0
0.93007588718388501;3.6739403974420592e-18;0;0;0;0;0
0.93976417767538378;-0.00098017140329559891;0;0;0;0;0
0.94945246816688256;-0.0019509032201612726;0;0;0;0;0
0.95914075865838144;-0.0029028467725446105;0;0;0;0;0
0.96882904914988022;-0.003826834323650882;0;0;0;0;0
0.97851733964137899;-0.0047139673682599584;0;0;0;0;0
0.98820563013287788;-0.0055557023301960173;0;0;0;0;0
0.99789392062437665;-0.0063439328416364472;0;0;0;0;0
1.0075822111158754;-0.0070710678118654658;0;0;0;0;0
1.0172705016073742;-0.0077301045336273591;0;0;0;0;0
1.026958792098873;-0.0083146961230254422;0;0;0;0;0
1.0366470825903717;-0.0088192126434835389;0;0;0;0;0
1.0463353730818707;-0.0092387953251128647;0;0;0;0;0
1.0560236635733695;-0.0095694033573220909;0;0;0;0;0
1.0657119540648683;-0.0098078528040323049;0;0;0;0;0
1.0754002445563671;-0.0099518472667219689;0;0;0;0;0
1.0850885350478658;-0.01;0;0;0;0;0
1.0947768255393646;-0.0099518472667219689;0;0;0;0;0
1.1044651160308634;-0.0098078528040323066;0;0;0;0;0
1.1141534065223622;-0.0095694033573220927;0;0;0;0;0
1.1238416970138609;-0.0092387953251128734;0;0;0;0;0
1.1335299875053599;-0.0088192126434835511;0;0;0;0;0
1.1432182779968587;-0.008314696123025456;0;0;0;0;0
1.1529065684883575;-0.0077301045336273756;0;0;0;0;0
1.1625948589798563;-0.0070710678118654849;0;0;0;0;0
1.172283149471355;-0.006343932841636468;0;0;0;0;0
1.1819714399628538;-0.0055557023301960398;0;0;0;0;0
1.1916597304543526;-0.0047139673682599975;0;0;0;0;0
1.2013480209458516;-0.0038268343236509063;0;0;0;0;0
1.2110363114373504;-0.0029028467725446356;0;0;0;0;0
1.2207246019288491;-0.0019509032201612984;0;0;0;0;0
1.2304128924203479;-0.00098017140329562514;0;0;0;0;0
1.2401011829118467;-4.8985871965894128e-18;0;0;0;0;0
1.2497894734033455;0.00098017140329559782;0;0;0;0;0
1.2594777638948442;0.0019509032201612715;0;0;0;0;0
1.269166054386343;0.0029028467725446096;0;0;0;0;0
1.2788543448778418;0.0038268343236508807;0;0;0;0;0
1.2885426353693408;0.0047139673682599732;0;0;0;0;0
1.2982309258608395;0.0055557023301960164;0;0;0;0;0
1.3079192163523383;0.0063439328416364472;0;0;0;0;0
1.3176075068438371;0.0070710678118654658;0;0;0;0;0
1.3272957973353359;0.0077301045336273591;0;0;0;0;0
1.3369840878268346;0.0083146961230254422;0;0;0;0;0
1.3466723783183334;0.0088192126434835389;0;0;0;0;0
1.3563606688098324;0.0092387953251128647;0;0;0;0;0
1.3660489593013312;0.0095694033573220857;0;0;0;0;0
1.37573724979283;0.0098078528040323014;0;0;0;0;0
1.3854255402843287;0.0099518472667219672;0;0;0;0;0
1.3951138307758275;0.01;0;0;0;0;0
1.4048021212673263;0.0099518472667219724;0;0;0;0;0
1.4144904117588251;0.0098078528040323066;0;0;0;0;0
1.4241787022503238;0.0095694033573220927;0;0;0;0;0
1.4338669927418226;0.0092387953251128752;0;0;0;0;0
1.4435552832333216;0.0088192126434835528;0;0;0;0;0
1.4532435737248204;0.0083146961230254578;0;0;0;0;0
1.4629318642163192;0.0077301045336273765;0;0;0;0;0
1.4726201547078179;0.0070710678118654858;0;0;0;0;0
1.4823084451993167;0.0063439328416364698;0;0;0;0;0
1.4919967356908155;0.0055557023301960398;0;0;0;0;0
1.5016850261823143;0.0047139673682599983;0;0;0;0;0
1.5113733166738132;0.0038268343236509072;0;0;0;0;0
1.521061607165312;0.0029028467725446365;0;0;0;0;0
1.5307498976568108;0.0019509032201612995;0;0;0;0;0
1.5404381881483096;0.00098017140329562645;0;0;0;0;0
1.5501264786398083;2.388680238973927e-17;0;0;0;0;0
1.5598147691313071;-0.00098017140329557896;0;0;0;0;0
1.5695030596228059;-0.0019509032201612527;0;0;0;0;0
1.5791913501143047;-0.0029028467725446083;0;0;0;0;0
1.5888796406058034;-0.0038268343236508794;0;0;0;0;0
1.5985679310973024;-0.0047139673682599567;0;0;0;0;0
1.6082562215888012;-0.0055557023301960008;0;0;0;0;0
1.6179445120803;-0.0063439328416364316;0;0;0;0;0
1.6276328025717988;-0.0070710678118654528;0;0;0;0;0
1.6373210930632975;-0.007730104533627347;0;0;0;0;0
1.6470093835547963;-0.00831469612302543;0;0;0;0;0
1.6566976740462951;-0.0088192126434835302;0;0;0;0;0
1.6663859645377941;-0.009238795325112863;0;0;0;0;0
1.6760742550292929;-0.0095694033573220857;0;0;0;0;0
1.6857625455207916;-0.0098078528040323014;0;0;0;0;0
1.6954508360122904;-0.0099518472667219672;0;0;0;0;0
1.7051391265037892;-0.01;0;0;0;0;0
1.714827416995288;-0.0099518472667219724;0;0;0;0;0
1.7245157074867867;-0.0098078528040323118;0;0;0;0;0
1.7342039979782855;-0.0095694033573220979;0;0;0;0;0
1.7438922884697843;-0.0092387953251128821;0;0;0;0;0
1.7535805789612833;-0.0088192126434835528;0;0;0;0;0
1.7632688694527821;-0.0083146961230254578;0;0;0;0;0
1.7729571599442808;-0.0077301045336273782;0;0;0;0;0
1.7826454504357796;-0.0070710678118654866;0;0;0;0;0
1.7923337409272784;-0.0063439328416364706;0;0;0;0;0
1.8020220314187771;-0.0055557023301960407;0;0;0;0;0
1.8117103219102759;-0.0047139673682599992;0;0;0;0;0
1.8213986124017749;-0.0038268343236508924;0;0;0;0;0
1.8310869028932737;-0.0029028467725446213;0;0;0;0;0
1.8407751933847725;-0.0019509032201612834;0;0;0;0;0
1.8504634838762712;-0.00098017140329560997;0;0;0;0;0
1.86015177436777;-7.3478807948841184e-18;0;0;0;0;0
1.8698400648592688;0.00098017140329559544;0;0;0;0;0
1.8795283553507676;0.0019509032201612689;0;0;0;0;0
1.8892166458422663;0.0029028467725446074;0;0;0;0;0
1.8989049363337651;0.0038268343236508785;0;0;0;0;0
1.9085932268252641;0.0047139673682599558;0;0;0;0;0
1.9182815173167629;0.0055557023301959999;0;0;0;0;0
1.9279698078082617;0.0063439328416364316;0;0;0;0;0
1.9376580982997604;0.0070710678118654511;0;0;0;0;0
1.9473463887912592;0.0077301045336273461;0;0;0;0;0
1.957034679282758;0.00831469612302543;0;0;0;0;0
1.9667229697742568;0.0088192126434835302;0;0;0;0;0
1.9764112602657558;0.009238795325112863;0;0;0;0;0
1.9860995507572545;0.009569403357322084;0;0;0;0;0
1.9957878412487533;0.0098078528040323014;0;0;0;0;0
2.0054761317402519;0.0099518472667219637;0;0;0;0;0
2.0151644222317509;0.01;0;0;0;0;0
2.0248527127232498;0.0099518472667219689;0;0;0;0;0
2.0345410032147484;0.0098078528040323118;0;0;0;0;0
2.0442292937062474;0.0095694033573220892;0;0;0;0;0
2.0539175841977459;0.0092387953251128838;0;0;0;0;0
2.0636058746892449;0.0088192126434835545;0;0;0;0;0
2.0732941651807435;0.0083146961230254786;0;0;0;0;0
2.0829824556722425;0.0077301045336273791;0;0;0;0;0
2.0926707461637415;0.0070710678118654866;0;0;0;0;0
2.10235903665524;0.0063439328416364706;0;0;0;0;0
2.112047327146739;0.0055557023301960129;0;0;0;0;0
2.1217356176382376;0.0047139673682600001;0;0;0;0;0
2.1314239081297366;0.0038268343236508933;0;0;0;0;0
2.1411121986212351;0.002902846772544656;0;0;0;0;0
2.1508004891127341;0.0019509032201612845;0;0;0;0;0
2.1604887796042327;0.00098017140329564661;0;0;0;0;0
2.1701770700957317;8.572527594031472e-18;0;0;0;0;0
2.1798653605872307;-0.00098017140329559414;0;0;0;0;0
2.1895536510787292;-0.0019509032201612678;0;0;0;0;0
2.1992419415702282;-0.0029028467725446057;0;0;0;0;0
2.2089302320617268;-0.0038268343236508772;0;0;0;0;0
2.2186185225532258;-0.0047139673682599541;0;0;0;0;0
2.2283068130447243;-0.0055557023301959982;0;0;0;0;0
2.2379951035362233;-0.0063439328416364307;0;0;0;0;0
2.2476833940277219;-0.0070710678118654502;0;0;0;0;0
2.2573716845192209;-0.0077301045336273444;0;0;0;0;0
2.2670599750107199;-0.0083146961230254491;0;0;0;0;0
2.2767482655022184;-0.0088192126434835285;0;0;0;0;0
2.2864365559937174;-0.009238795325112863;0;0;0;0;0
2.296124846485216;-0.0095694033573220736;0;0;0;0;0
2.305813136976715;-0.0098078528040323014;0;0;0;0;0
2.3155014274682135;-0.009951847266721962;0;0;0;0;0
2.3251897179597125;-0.01;0;0;0;0;0
2.3348780084512115;-0.0099518472667219689;0;0;0;0;0
2.3445662989427101;-0.0098078528040323118;0;0;0;0;0
2.3542545894342091;-0.0095694033573220892;0;0;0;0;0
2.3639428799257076;-0.0092387953251128838;0;0;0;0;0
2.3736311704172066;-0.0088192126434835545;0;0;0;0;0
2.3833194609087052;-0.0083146961230254786;0;0;0;0;0
2.3930077514002042;-0.0077301045336273791;0;0;0;0;0
2.4026960418917032;-0.0070710678118654884;0;0;0;0;0
2.4123843323832017;-0.0063439328416364715;0;0;0;0;0
2.4220726228747007;-0.0055557023301960433;0;0;0;0;0
2.4317609133661993;-0.0047139673682600018;0;0;0;0;0
2.4414492038576983;-0.0038268343236509271;0;0;0;0;0
2.4511374943491968;-0.0029028467725446573;0;0;0;0;0
2.4608257848406958;-0.0019509032201613205;0;0;0;0;0
2.4705140753321944;-0.00098017140329564791;0;0;0;0;0
2.4802023658236934;-9.7971743931788255e-18;0;0;0;0;0
2.4898906563151924;0.00098017140329559284;0;0;0;0;0
2.4995789468066909;0.0019509032201612665;0;0;0;0;0
2.5092672372981899;0.0029028467725446044;0;0;0;0;0
2.5189555277896885;0.0038268343236508764;0;0;0;0;0
2.5286438182811874;0.0047139673682599532;0;0;0;0;0
2.538332108772686;0.0055557023301959973;0;0;0;0;0
2.548020399264185;0.0063439328416364299;0;0;0;0;0
2.5577086897556836;0.0070710678118654493;0;0;0;0;0
2.5673969802471825;0.0077301045336273444;0;0;0;0;0
2.5770852707386815;0.0083146961230254474;0;0;0;0;0
2.5867735612301801;0.0088192126434835285;0;0;0;0;0
2.5964618517216791;0.0092387953251128613;0;0;0;0;0
2.6061501422131776;0.0095694033573220736;0;0;0;0;0
2.6158384327046766;0.0098078528040322997;0;0;0;0;0
2.6255267231961752;0.009951847266721962;0;0;0;0;0
2.6352150136876742;0.01;0;0;0;0;0
2.6449033041791732;0.0099518472667219689;0;0;0;0;0
2.6545915946706717;0.0098078528040323118;0;0;0;0;0
2.6642798851621707;0.0095694033573220892;0;0;0;0;0
2.6739681756536693;0.0092387953251128838;0;0;0;0;0
2.6836564661451683;0.0088192126434835545;0;0;0;0;0
2.6933447566366668;0.0083146961230254786;0;0;0;0;0
2.7030330471281658;0.0077301045336273799;0;0;0;0;0
2.7127213376196648;0.0070710678118654892;0;0;0;0;0
2.7224096281111634;0.0063439328416364724;0;0;0;0;0
2.7320979186026624;0.0055557023301960442;0;0;0;0;0
2.7417862090941609;0.0047139673682600027;0;0;0;0;0
2.7514744995856599;0.0038268343236509284;0;0;0;0;0
2.7611627900771585;0.0029028467725446582;0;0;0;0;0
2.7708510805686575;0.0019509032201613216;0;0;0;0;0
2.780539371060156;0.000980171403295649;0;0;0;0;0
2.790227661551655;4.6548957980331189e-17;0;0;0;0;0
2.799915952043154;-0.00098017140329559175;0;0;0;0;0
2.8096042425346526;-0.0019509032201612303;0;0;0;0;0
2.8192925330261516;-0.0029028467725446035;0;0;0;0;0
2.8289808235176501;-0.0038268343236508751;0;0;0;0;0
2.8386691140091491;-0.0047139673682599524;0;0;0;0;0
2.8483574045006477;-0.0055557023301959964;0;0;0;0;0
2.8580456949921467;-0.0063439328416364281;0;0;0;0;0
2.8677339854836452;-0.0070710678118654485;0;0;0;0;0
2.8774222759751442;-0.0077301045336273435;0;0;0;0;0
2.8871105664666432;-0.0083146961230254474;0;0;0;0;0
2.8967988569581418;-0.0088192126434835268;0;0;0;0;0
2.9064871474496408;-0.0092387953251128613;0;0;0;0;0
2.9161754379411393;-0.0095694033573220736;0;0;0;0;0
2.9258637284326383;-0.0098078528040322997;0;0;0;0;0
2.9355520189241369;-0.009951847266721962;0;0;0;0;0
2.9452403094156359;-0.01;0;0;0;0;0
2.9549285999071349;-0.0099518472667219689;0;0;0;0;0
2.9646168903986334;-0.0098078528040323118;0;0;0;0;0
2.9743051808901324;-0.0095694033573220892;0;0;0;0;0
2.983993471381631;-0.0092387953251128838;0;0;0;0;0
2.99368176187313;-0.0088192126434835545;0;0;0;0;0
3.0033700523646285;-0.0083146961230254803;0;0;0;0;0
3.0130583428561275;-0.0077301045336273808;0;0;0;0;0
3.0227466333476265;-0.0070710678118654901;0;0;0;0;0
3.0324349238391251;-0.0063439328416364741;0;0;0;0;0
3.042123214330624;-0.005555702330196045;0;0;0;0;0
3.0518115048221226;-0.0047139673682600036;0;0;0;0;0
3.0614997953136216;-0.0038268343236509297;0;0;0;0;0
3.0711880858051201;-0.0029028467725446599;0;0;0;0;0
3.0808763762966191;-0.0019509032201613231;0;0;0;0;0
3.0905646667881177;-0.00098017140329565008;0;0;0;0;0
3.1002529572796167;-4.777360477947854e-17;0;0;0;0;0
3.1099412477711157;0.00098017140329559045;0;0;0;0;0
3.1196295382626142;0.0019509032201612292;0;0;0;0;0
3.1293178287541132;0.0029028467725446022;0;0;0;0;0
3.1390061192456118;0.0038268343236508412;0;0;0;0;0
3.1486944097371108;0.0047139673682599506;0;0;0;0;0
3.1583827002286093;0.0055557023301959956;0;0;0;0;0
3.1680709907201083;0.006343932841636455;0;0;0;0;0
3.1777592812116069;0.0070710678118654485;0;0;0;0;0
3.1874475717031059;0.007730104533627366;0;0;0;0;0
3.1971358621946049;0.0083146961230254265;0;0;0;0;0
3.2068241526861034;0.0088192126434835441;0;0;0;0;0
3.2165124431776024;0.0092387953251128474;0;0;0;0;0
3.226200733669101;0.0095694033573220823;0;0;0;0;0
3.2358890241606;0.0098078528040322927;0;0;0;0;0
3.2455773146520985;0.0099518472667219655;0;0;0;0;0
3.2552656051435975;0.01;0;0;0;0;0
3.2649538956350965;0.0099518472667219724;0;0;0;0;0
3.2746421861265951;0.0098078528040323187;0;0;0;0;0
3.2843304766180941;0.0095694033573221014;0;0;0;0;0
3.2940187671095926;0.0092387953251128994;0;0;0;0;0
3.3037070576010916;0.0088192126434835736;0;0;0;0;0
3.3133953480925902;0.0083146961230254994;0;0;0;0;0
3.3230836385840892;0.0077301045336274042;0;0;0;0;0
3.3327719290755882;0.0070710678118654918;0;0;0;0;0
3.3424602195670867;0.0063439328416365027;0;0;0;0;0
3.3521485100585857;0.0055557023301960459;0;0;0;0;0
3.3618368005500843;0.0047139673682600365;0;0;0;0;0
3.3715250910415833;0.0038268343236509306;0;0;0;0;0
3.3812133815330818;0.002902846772544695;0;0;0;0;0
3.3909016720245808;0.0019509032201613242;0;0;0;0;0
3.4005899625160794;0.00098017140329568673;0;0;0;0;0
3.4102782530075784;4.899825157862589e-17;0;0;0;0;0
3.4199665434990774;-0.00098017140329558937;0;0;0;0;0
3.4296548339905759;-0.0019509032201612281;0;0;0;0;0
3.4393431244820749;-0.0029028467725446014;0;0;0;0;0
3.4490314149735735;-0.0038268343236508404;0;0;0;0;0
3.4587197054650725;-0.0047139673682599498;0;0;0;0;0
3.468407995956571;-0.0055557023301959652;0;0;0;0;0
3.47809628644807;-0.0063439328416364264;0;0;0;0;0
3.4877845769395686;-0.0070710678118654216;0;0;0;0;0
3.4974728674310676;-0.0077301045336273426;0;0;0;0;0
3.5071611579225666;-0.0083146961230254456;0;0;0;0;0
3.5168494484140651;-0.0088192126434835268;0;0;0;0;0
3.5265377389055641;-0.0092387953251128613;0;0;0;0;0
3.5362260293970627;-0.0095694033573220719;0;0;0;0;0
3.5459143198885616;-0.0098078528040322997;0;0;0;0;0
3.5556026103800602;-0.009951847266721962;0;0;0;0;0
3.5652909008715592;-0.01;0;0;0;0;0
3.5749791913630582;-0.0099518472667219689;0;0;0;0;0
3.5846674818545567;-0.0098078528040323118;0;0;0;0;0
3.5943557723460557;-0.0095694033573220909;0;0;0;0;0
3.6040440628375543;-0.0092387953251128856;0;0;0;0;0
3.6137323533290533;-0.0088192126434835563;0;0;0;0;0
3.6234206438205518;-0.0083146961230254821;0;0;0;0;0
3.6331089343120508;-0.0077301045336273825;0;0;0;0;0
3.6427972248035498;-0.0070710678118654667;0;0;0;0;0
3.6524855152950484;-0.0063439328416364758;0;0;0;0;0
3.6621738057865474;-0.0055557023301960173;0;0;0;0;0
3.6718620962780459;-0.0047139673682600062;0;0;0;0;0
3.6815503867695449;-0.0038268343236508989;0;0;0;0;0
3.6912386772610435;-0.0029028467725446621;0;0;0;0;0
3.7009269677525425;-0.0019509032201612906;0;0;0;0;0
3.710615258244041;-0.00098017140329565268;0;0;0;0;0
3.72030354873554;-1.4695761589768237e-17;0;0;0;0;0
3.729991839227039;0.00098017140329555272;0;0;0;0;0
3.7396801297185376;0.0019509032201612618;0;0;0;0;0
3.7493684202100366;0.0029028467725445662;0;0;0;0;0
3.7590567107015351;0.0038268343236508716;0;0;0;0;0
3.7687450011930341;0.0047139673682599177;0;0;0;0;0
3.7784332916845327;0.005555702330195993;0;0;0;0;0
3.7881215821760317;0.0063439328416364524;0;0;0;0;0
3.7978098726675302;0.0070710678118654459;0;0;0;0;0
3.8074981631590292;0.0077301045336273634;0;0;0;0;0
3.8171864536505282;0.0083146961230254265;0;0;0;0;0
3.8268747441420268;0.0088192126434835424;0;0;0;0;0
3.8365630346335258;0.0092387953251128457;0;0;0;0;0
3.8462513251250243;0.0095694033573220823;0;0;0;0;0
3.8559396156165233;0.0098078528040322927;0;0;0;0;0
3.8656279061080219;0.0099518472667219655;0;0;0;0;0
3.8753161965995209;0.01;0;0;0;0;0
3.8850044870910199;0.0099518472667219724;0;0;0;0;0
3.8946927775825184;0.0098078528040323187;0;0;0;0;0
3.9043810680740174;0.0095694033573221014;0;0;0;0;0
3.914069358565516;0.0092387953251128994;0;0;0;0;0
3.923757649057015;0.0088192126434835736;0;0;0;0;0
3.9334459395485135;0.0083146961230255011;0;0;0;0;0
3.9431342300400125;0.0077301045336274059;0;0;0;0;0
3.9528225205315115;0.0070710678118654927;0;0;0;0;0
3.9625108110230101;0.0063439328416365036;0;0;0;0;0
3.9721991015145091;0.0055557023301960485;0;0;0;0;0
3.9818873920060076;0.0047139673682600391;0;0;0;0;0
3.9915756824975066;0.0038268343236509328;0;0;0;0;0
4.0012639729890056;0.0029028467725446296;0;0;0;0;0
4.0109522634805037;0.0019509032201613964;0;0;0;0;0
4.0206405539720027;0.00098017140329568911;0;0;0;0;0
4.0303288444635017;5.1447545176920603e-17;0;0;0;0;0
4.0400171349550007;-0.00098017140329558698;0;0;0;0;0
4.0497054254464997;-0.0019509032201612954;0;0;0;0;0
4.0593937159379978;-0.0029028467725445307;0;0;0;0;0
4.0690820064294968;-0.0038268343236508378;0;0;0;0;0
4.0787702969209958;-0.004713967368259948;0;0;0;0;0
4.0884585874124948;-0.0055557023301960216;0;0;0;0;0
4.0981468779039929;-0.0063439328416363691;0;0;0;0;0
4.1078351683954919;-0.0070710678118654207;0;0;0;0;0
4.1175234588869909;-0.00773010453362734;0;0;0;0;0
4.1272117493784899;-0.0083146961230254439;0;0;0;0;0
4.1369000398699889;-0.008819212643483558;0;0;0;0;0
4.146588330361487;-0.0092387953251128318;0;0;0;0;0
4.156276620852986;-0.0095694033573220719;0;0;0;0;0
4.165964911344485;-0.0098078528040322997;0;0;0;0;0
4.175653201835984;-0.0099518472667219689;0;0;0;0;0
4.185341492327483;-0.01;0;0;0;0;0
4.1950297828189811;-0.0099518472667219759;0;0;0;0;0
4.2047180733104801;-0.0098078528040323118;0;0;0;0;0
4.2144063638019791;-0.0095694033573220909;0;0;0;0;0
4.2240946542934781;-0.0092387953251128595;0;0;0;0;0
4.2337829447849762;-0.0088192126434835909;0;0;0;0;0
4.2434712352764752;-0.0083146961230254821;0;0;0;0;0
4.2531595257679742;-0.0077301045336273834;0;0;0;0;0
4.2628478162594732;-0.0070710678118654684;0;0;0;0;0
4.2725361067509722;-0.0063439328416364776;0;0;0;0;0
4.2822243972424703;-0.0055557023301960788;0;0;0;0;0
4.2919126877339693;-0.0047139673682600079;0;0;0;0;0
4.3016009782254683;-0.0038268343236509011;0;0;0;0;0
4.3112892687169673;-0.0029028467725446643;0;0;0;0;0
4.3209775592084654;-0.0019509032201613628;0;0;0;0;0
4.3306658496999644;-0.00098017140329565507;0;0;0;0;0
4.3403541401914634;-1.7145055188062944e-17;0;0;0;0;0
4.3500424306829624;0.00098017140329555033;0;0;0;0;0
4.3597307211744614;0.0019509032201612592;0;0;0;0;0
4.3694190116659595;0.0029028467725445632;0;0;0;0;0
4.3791073021574585;0.0038268343236508694;0;0;0;0;0
4.3887955926489575;0.0047139673682599151;0;0;0;0;0
4.3984838831404565;0.0055557023301959904;0;0;0;0;0
4.4081721736319546;0.006343932841636396;0;0;0;0;0
4.4178604641234536;0.0070710678118654433;0;0;0;0;0
4.4275487546149526;0.0077301045336273166;0;0;0;0;0
4.4372370451064516;0.0083146961230254248;0;0;0;0;0
4.4469253355979506;0.0088192126434835424;0;0;0;0;0
4.4566136260894487;0.0092387953251128457;0;0;0;0;0
4.4663019165809477;0.0095694033573220615;0;0;0;0;0
4.4759902070724467;0.0098078528040322927;0;0;0;0;0
4.4856784975639457;0.0099518472667219655;0;0;0;0;0
4.4953667880554438;0.01;0;0;0;0;0
4.5050550785469428;0.0099518472667219724;0;0;0;0;0
4.5147433690384418;0.0098078528040323205;0;0;0;0;0
4.5244316595299408;0.0095694033573221014;0;0;0;0;0
4.5341199500214397;0.0092387953251128734;0;0;0;0;0
4.5438082405129379;0.0088192126434835753;0;0;0;0;0
4.5534965310044369;0.0083146961230255029;0;0;0;0;0
4.5631848214959359;0.0077301045336274068;0;0;0;0;0
4.5728731119874348;0.0070710678118654944;0;0;0;0;0
4.5825614024789338;0.0063439328416364507;0;0;0;0;0
4.592249692970432;0.0055557023301961092;0;0;0;0;0
4.6019379834619309;0.00471396736826004;0;0;0;0;0
4.6116262739534299;0.0038268343236509349;0;0;0;0;0
4.6213145644449289;0.0029028467725446317;0;0;0;0;0
4.631002854936427;0.0019509032201613986;0;0;0;0;0
4.640691145427926;0.00098017140329569171;0;0;0;0;0
4.650379435919425;5.3896838775215304e-17;0;0;0;0;0
4.660067726410924;-0.00098017140329558438;0;0;0;0;0
4.669756016902423;-0.001950903220161293;0;0;0;0;0
4.6794443073939211;-0.0029028467725445285;0;0;0;0;0
4.6891325978854201;-0.0038268343236508356;0;0;0;0;0
4.6988208883769191;-0.0047139673682599454;0;0;0;0;0
4.7085091788684181;-0.0055557023301960199;0;0;0;0;0
4.7181974693599162;-0.0063439328416363674;0;0;0;0;0
4.7278857598514152;-0.0070710678118654181;0;0;0;0;0
4.7375740503429142;-0.0077301045336273392;0;0;0;0;0
4.7472623408344132;-0.0083146961230254439;0;0;0;0;0
4.7569506313259122;-0.008819212643483558;0;0;0;0;0
4.7666389218174103;-0.0092387953251128318;0;0;0;0;0
4.7763272123089093;-0.0095694033573220701;0;0;0;0;0
4.7860155028004083;-0.0098078528040322997;0;0;0;0;0
4.7957037932919073;-0.0099518472667219689;0;0;0;0;0
4.8053920837834063;-0.01;0;0;0;0;0
4.8150803742749044;-0.0099518472667219759;0;0;0;0;0
4.8247686647664034;-0.0098078528040323135;0;0;0;0;0
4.8344569552579024;-0.0095694033573220909;0;0;0;0;0
4.8441452457494014;-0.0092387953251128873;0;0;0;0;0
4.8538335362408995;-0.0088192126434835927;0;0;0;0;0
4.8635218267323985;-0.0083146961230254855;0;0;0;0;0
4.8732101172238975;-0.007730104533627386;0;0;0;0;0
4.8828984077153965;-0.0070710678118655204;0;0;0;0;0
4.8925866982068955;-0.0063439328416364793;0;0;0;0;0
4.9022749886983936;-0.0055557023301960806;0;0;0;0;0
4.9119632791898926;-0.0047139673682600105;0;0;0;0;0
4.9216515696813916;-0.0038268343236509688;0;0;0;0;0
4.9313398601728906;-0.0029028467725446669;0;0;0;0;0
4.9410281506643887;-0.001950903220161365;0;0;0;0;0
4.9507164411558877;-0.00098017140329565745;0;0;0;0;0
4.9604047316473867;-1.9594348786357651e-17;0;0;0;0;0
4.9700930221388857;0.00098017140329554773;0;0;0;0;0
4.9797813126303847;0.001950903220161257;0;0;0;0;0
4.9894696031218828;0.002902846772544561;0;0;0;0;0
4.9991578936133818;0.0038268343236508673;0;0;0;0;0
5.0088461841048808;0.0047139673682599133;0;0;0;0;0
5.0185344745963798;0.0055557023301959895;0;0;0;0;0
5.0282227650878779;0.0063439328416363943;0;0;0;0;0
5.0379110555793769;0.0070710678118654424;0;0;0;0;0
5.0475993460708759;0.0077301045336273157;0;0;0;0;0
5.0572876365623749;0.0083146961230254231;0;0;0;0;0
5.0669759270538739;0.0088192126434835406;0;0;0;0;0
5.076664217545372;0.0092387953251128439;0;0;0;0;0
5.086352508036871;0.0095694033573220615;0;0;0;0;0
5.09604079852837;0.009807852804032291;0;0;0;0;0
5.105729089019869;0.0099518472667219655;0;0;0;0;0
5.1154173795113671;0.01;0;0;0;0;0
5.1251056700028661;0.0099518472667219811;0;0;0;0;0
5.1347939604943651;0.0098078528040323205;0;0;0;0;0
5.1444822509858641;0.0095694033573221031;0;0;0;0;0
5.1541705414773631;0.0092387953251128734;0;0;0;0;0
5.1638588319688612;0.00881921264348361;0;0;0;0;0
5.1735471224603602;0.0083146961230255046;0;0;0;0;0
5.1832354129518592;0.0077301045336274085;0;0;0;0;0
5.1929237034433582;0.0070710678118654962;0;0;0;0;0
5.2026119939348572;0.0063439328416364524;0;0;0;0;0
5.2123002844263553;0.0055557023301961118;0;0;0;0;0
5.2219885749178543;0.0047139673682600426;0;0;0;0;0
5.2316768654093533;0.0038268343236509375;0;0;0;0;0
5.2413651559008523;0.0029028467725446339;0;0;0;0;0
5.2510534463923504;0.001950903220161401;0;0;0;0;0
5.2607417368838494;0.0009801714032956941;0;0;0;0;0
5.2704300273753484;5.6346132373510012e-17;0;0;0;0;0
5.2801183178668474;-0.00098017140329558199;0;0;0;0;0
5.2898066083583464;-0.0019509032201612906;0;0;0;0;0
5.2994948988498445;-0.0029028467725445263;0;0;0;0;0
5.3091831893413435;-0.0038268343236508334;0;0;0;0;0
5.3188714798328425;-0.0047139673682599428;0;0;0;0;0
5.3285597703243415;-0.0055557023301960173;0;0;0;0;0
5.3382480608158396;-0.0063439328416363665;0;0;0;0;0
5.3479363513073386;-0.0070710678118654172;0;0;0;0;0
5.3576246417988376;-0.0077301045336273366;0;0;0;0;0
5.3673129322903366;-0.0083146961230254422;0;0;0;0;0
5.3770012227818356;-0.0088192126434835563;0;0;0;0;0
5.3866895132733337;-0.0092387953251128318;0;0;0;0;0
5.3963778037648327;-0.0095694033573220701;0;0;0;0;0
5.4060660942563317;-0.0098078528040322979;0;0;0;0;0
5.4157543847478307;-0.0099518472667219689;0;0;0;0;0
5.4254426752393297;-0.01;0;0;0;0;0
5.4351309657308278;-0.0099518472667219776;0;0;0;0;0
5.4448192562223268;-0.0098078528040323135;0;0;0;0;0
5.4545075467138258;-0.0095694033573220927;0;0;0;0;0
5.4641958372053248;-0.0092387953251128873;0;0;0;0;0
5.4738841276968229;-0.0088192126434835944;0;0;0;0;0
5.4835724181883219;-0.0083146961230254855;0;0;0;0;0
5.4932607086798209;-0.0077301045336273869;0;0;0;0;0
5.5029489991713199;-0.0070710678118655222;0;0;0;0;0
5.5126372896628189;-0.0063439328416364819;0;0;0;0;0
5.522325580154317;-0.0055557023301960832;0;0;0;0;0
5.532013870645816;-0.0047139673682600122;0;0;0;0;0
5.541702161137315;-0.0038268343236509714;0;0;0;0;0
5.5513904516288139;-0.002902846772544669;0;0;0;0;0
5.5610787421203121;-0.0019509032201613674;0;0;0;0;0
5.5707670326118111;-0.00098017140329566006;0;0;0;0;0
5.5804553231033101;-9.3097915960662378e-17;0;0;0;0;0
5.590143613594809;0.00098017140329554535;0;0;0;0;0
5.599831904086308;0.0019509032201612544;0;0;0;0;0
5.6095201945778062;0.0029028467725445589;0;0;0;0;0
5.6192084850693051;0.0038268343236507992;0;0;0;0;0
5.6288967755608041;0.0047139673682599107;0;0;0;0;0
5.6385850660523031;0.0055557023301959878;0;0;0;0;0
5.6482733565438012;0.0063439328416363926;0;0;0;0;0
5.6579616470353002;0.0070710678118654407;0;0;0;0;0
5.6676499375267992;0.0077301045336273131;0;0;0;0;0
5.6773382280182982;0.0083146961230254213;0;0;0;0;0
5.6870265185097972;0.0088192126434835389;0;0;0;0;0
5.6967148090012953;0.0092387953251128439;0;0;0;0;0
5.7064030994927943;0.0095694033573220597;0;0;0;0;0
5.7160913899842933;0.009807852804032291;0;0;0;0;0
5.7257796804757923;0.0099518472667219655;0;0;0;0;0
5.7354679709672904;0.01;0;0;0;0;0
5.7451562614587894;0.0099518472667219811;0;0;0;0;0
5.7548445519502884;0.0098078528040323205;0;0;0;0;0
5.7645328424417874;0.0095694033573221048;0;0;0;0;0
5.7742211329332864;0.0092387953251128734;0;0;0;0;0
5.7839094234247845;0.00881921264348361;0;0;0;0;0
5.7935977139162835;0.0083146961230255063;0;0;0;0;0
5.8032860044077825;0.0077301045336274103;0;0;0;0;0
5.8129742948992815;0.0070710678118654979;0;0;0;0;0
5.8226625853907805;0.006343932841636455;0;0;0;0;0
5.8323508758822786;0.0055557023301961144;0;0;0;0;0
5.8420391663737776;0.0047139673682600452;0;0;0;0;0
5.8517274568652766;0.0038268343236509397;0;0;0;0;0
5.8614157473567756;0.0029028467725446361;0;0;0;0;0
5.8711040378482737;0.0019509032201614036;0;0;0;0;0
5.8807923283397727;0.00098017140329569648;0;0;0;0;0
5.8904806188312717;5.8795425971804725e-17;0;0;0;0;0
5.9001689093227707;-0.00098017140329557961;0;0;0;0;0
5.9098571998142697;-0.001950903220161288;0;0;0;0;0
5.9195454903057678;-0.0029028467725445242;0;0;0;0;0
5.9292337807972668;-0.0038268343236508313;0;0;0;0;0
5.9389220712887658;-0.0047139673682599411;0;0;0;0;0
5.9486103617802648;-0.0055557023301960155;0;0;0;0;0
5.9582986522717629;-0.0063439328416363639;0;0;0;0;0
5.9679869427632619;-0.0070710678118654146;0;0;0;0;0
5.9776752332547609;-0.0077301045336273357;0;0;0;0;0
5.9873635237462599;-0.0083146961230254404;0;0;0;0;0
5.9970518142377589;-0.0088192126434835216;0;0;0;0;0
6.006740104729257;-0.0092387953251128301;0;0;0;0;0
6.016428395220756;-0.0095694033573220701;0;0;0;0;0
6.026116685712255;-0.0098078528040322979;0;0;0;0;0
6.035804976203754;-0.009951847266721962;0;0;0;0;0
6.045493266695253;-0.01;0;0;0;0;0
6.0551815571867511;-0.0099518472667219776;0;0;0;0;0
6.0648698476782501;-0.0098078528040323153;0;0;0;0;0
6.0745581381697491;-0.0095694033573220944;0;0;0;0;0
6.0842464286612481;-0.009238795325112889;0;0;0;0;0
6.0939347191527462;-0.0088192126434835944;0;0;0;0;0
6.1036230096442452;-0.0083146961230254873;0;0;0;0;0
6.1133113001357442;-0.0077301045336273886;0;0;0;0;0
6.1229995906272432;-0.0070710678118655239;0;0;0;0;0
6.1326878811187422;-0.0063439328416364828;0;0;0;0;0
6.1423761716102403;-0.0055557023301960849;0;0;0;0;0
6.1520644621017393;-0.0047139673682600148;0;0;0;0;0
6.1617527525932383;-0.0038268343236509735;0;0;0;0;0
6.1714410430847373;-0.0029028467725446716;0;0;0;0;0
6.1811293335762354;-0.00195090322016137;0;0;0;0;0
6.1908176240677344;-0.00098017140329566244;0;0;0;0;0
6.2005059145592334;-9.5547209558957079e-17;0;0;0;0;0
6.2101942050507324;0.00098017140329554296;0;0;0;0;0
6.2198824955422314;0.001950903220161252;0;0;0;0;0
6.2295707860337295;0.0029028467725445567;0;0;0;0;0
6.2392590765252285;0.003826834323650797;0;0;0;0;0
6.2489473670167275;0.004713967368259909;0;0;0;0;0
6.2586356575082265;0.0055557023301959852;0;0;0;0;0
6.2683239479997246;0.0063439328416363908;0;0;0;0;0
6.2780122384912236;0.0070710678118653895;0;0;0;0;0
6.2877005289827226;0.0077301045336273123;0;0;0;0;0
6.2973888194742216;0.0083146961230254196;0;0;0;0;0
6.3070771099657206;0.0088192126434835389;0;0;0;0;0
6.3167654004572187;0.0092387953251128439;0;0;0;0;0
6.3264536909487177;0.009569403357322058;0;0;0;0;0
6.3361419814402167;0.0098078528040323049;0;0;0;0;0
6.3458302719317157;0.0099518472667219655;0;0;0;0;0
6.3555185624232138;0.01;0;0;0;0;0
6.3652068529147128;0.0099518472667219811;0;0;0;0;0
6.3748951434062118;0.0098078528040323083;0;0;0;0;0
6.3845834338977108;0.0095694033573221048;0;0;0;0;0
6.3942717243892098;0.0092387953251129029;0;0;0;0;0
6.4039600148807079;0.0088192126434836118;0;0;0;0;0
6.4136483053722069;0.0083146961230254682;0;0;0;0;0
6.4233365958637059;0.007730104533627412;0;0;0;0;0
6.4330248863552049;0.0070710678118655499;0;0;0;0;0
6.4427131768467039;0.0063439328416364576;0;0;0;0;0
6.452401467338202;0.0055557023301960563;0;0;0;0;0
6.462089757829701;0.0047139673682600469;0;0;0;0;0
6.4717780483212;0.0038268343236510078;0;0;0;0;0
6.481466338812699;0.0029028467725446391;0;0;0;0;0
6.4911546293041971;0.0019509032201613361;0;0;0;0;0
6.5008429197956961;0.00098017140329569909;0;0;0;0;0
6.5105312102871951;1.3229899314610943e-16;0;0;0;0;0
6.5202195007786941;-0.00098017140329557701;0;0;0;0;0
6.5299077912701931;-0.001950903220161216;0;0;0;0;0
6.5395960817616912;-0.0029028467725445211;0;0;0;0;0
6.5492843722531902;-0.0038268343236507632;0;0;0;0;0
6.5589726627446892;-0.0047139673682599385;0;0;0;0;0
6.5686609532361881;-0.0055557023301959539;0;0;0;0;0
6.5783492437276863;-0.0063439328416363613;0;0;0;0;0
6.5880375342191853;-0.0070710678118653626;0;0;0;0;0
6.5977258247106843;-0.0077301045336273348;0;0;0;0;0
6.6074141152021832;-0.0083146961230254005;0;0;0;0;0
6.6171024056936822;-0.0088192126434835545;0;0;0;0;0
6.6267906961851804;-0.0092387953251128023;0;0;0;0;0
6.6364789866766793;-0.0095694033573220684;0;0;0;0;0
6.6461672771681783;-0.009807852804032284;0;0;0;0;0
6.6558555676596773;-0.0099518472667219689;0;0;0;0;0
6.6655438581511763;-0.01;0;0;0;0;0
6.6752321486426744;-0.0099518472667219776;0;0;0;0;0
6.6849204391341734;-0.0098078528040323291;0;0;0;0;0
6.6946087296256724;-0.0095694033573220944;0;0;0;0;0
6.7042970201171714;-0.009238795325112889;0;0;0;0;0
6.7139853106086695;-0.0088192126434835962;0;0;0;0;0
6.7236736011001685;-0.0083146961230255272;0;0;0;0;0
6.7333618915916675;-0.0077301045336273903;0;0;0;0;0
6.7430501820831665;-0.0070710678118655257;0;0;0;0;0
6.7527384725746655;-0.0063439328416364307;0;0;0;0;0
6.7624267630661636;-0.0055557023301961465;0;0;0;0;0
6.7721150535576626;-0.0047139673682600174;0;0;0;0;0
6.7818033440491616;-0.0038268343236509757;0;0;0;0;0
6.7914916345406606;-0.0029028467725446057;0;0;0;0;0
6.8011799250321587;-0.0019509032201614417;0;0;0;0;0
6.8108682155236577;-0.00098017140329566483;0;0;0;0;0
6.8205565060151567;-9.799650315725178e-17;0;0;0;0;0
6.8302447965066557;0.00098017140329561127;0;0;0;0;0
6.8399330869981547;0.0019509032201612498;0;0;0;0;0
6.8496213774896528;0.0029028467725445545;0;0;0;0;0
6.8593096679811518;0.0038268343236507948;0;0;0;0;0
6.8689979584726508;0.0047139673682599697;0;0;0;0;0
6.8786862489641498;0.0055557023301959834;0;0;0;0;0
6.8883745394556479;0.0063439328416363882;0;0;0;0;0
6.8980628299471469;0.0070710678118653869;0;0;0;0;0
6.9077511204386459;0.0077301045336273556;0;0;0;0;0
6.9174394109301449;0.0083146961230254196;0;0;0;0;0
6.9271277014216439;0.0088192126434835042;0;0;0;0;0
6.936815991913142;0.0092387953251128144;0;0;0;0;0
6.946504282404641;0.0095694033573220788;0;0;0;0;0
6.95619257289614;0.0098078528040322892;0;0;0;0;0
6.965880863387639;0.0099518472667219585;0;0;0;0;0
6.9755691538791371;0.01;0;0;0;0;0
6.9852574443706361;0.0099518472667219741;0;0;0;0;0
6.9949457348621351;0.0098078528040323222;0;0;0;0;0
7.0046340253536341;0.0095694033573221256;0;0;0;0;0
7.0143223158451331;0.0092387953251128769;0;0;0;0;0
7.0240106063366312;0.0088192126434835788;0;0;0;0;0
7.0336988968281302;0.0083146961230255098;0;0;0;0;0
7.0433871873196292;0.0077301045336274589;0;0;0;0;0
7.0530754778111282;0.0070710678118655014;0;0;0;0;0
7.0627637683026272;0.006343932841636514;0;0;0;0;0
7.0724520587941253;0.005555702330196117;0;0;0;0;0
7.0821403492856243;0.004713967368260112;0;0;0;0;0
7.0918286397771233;0.003826834323650944;0;0;0;0;0
7.1015169302686223;0.0029028467725447089;0;0;0;0;0
7.1112052207601204;0.0019509032201614083;0;0;0;0;0
7.1208935112516194;0.00098017140329577216;0;0;0;0;0
7.1305818017431184;6.3694013168394139e-17;0;0;0;0;0
7.1402700922346174;-0.00098017140329550393;0;0;0;0;0
7.1499583827261164;-0.0019509032201612834;0;0;0;0;0
7.1596466732176145;-0.0029028467725445875;0;0;0;0;0
7.1693349637091135;-0.0038268343236508265;0;0;0;0;0
7.1790232542006125;-0.0047139673682598743;0;0;0;0;0
7.1887115446921115;-0.0055557023301960121;0;0;0;0;0
7.1983998351836096;-0.0063439328416364151;0;0;0;0;0
7.2080881256751086;-0.0070710678118654112;0;0;0;0;0
7.2177764161666076;-0.007730104533627288;0;0;0;0;0
7.2274647066581066;-0.0083146961230254387;0;0;0;0;0
7.2371529971496056;-0.0088192126434835198;0;0;0;0;0
7.2468412876411037;-0.0092387953251128283;0;0;0;0;0
7.2565295781326027;-0.0095694033573220476;0;0;0;0;0
7.2662178686241017;-0.0098078528040322962;0;0;0;0;0
7.2759061591156007;-0.009951847266721962;0;0;0;0;0
7.2855944496070997;-0.01;0;0;0;0;0
7.2952827400985978;-0.0099518472667219846;0;0;0;0;0
7.3049710305900968;-0.0098078528040323153;0;0;0;0;0
7.3146593210815958;-0.0095694033573221152;0;0;0;0;0
7.3243476115730948;-0.009238795325112863;0;0;0;0;0
7.3340359020645929;-0.0088192126434836308;0;0;0;0;0
7.3437241925560919;-0.008314696123025489;0;0;0;0;0
7.3534124830475909;-0.0077301045336274363;0;0;0;0;0
7.3631007735390899;-0.0070710678118654771;0;0;0;0;0
7.3727890640305889;-0.0063439328416364871;0;0;0;0;0
7.382477354522087;-0.0055557023301960893;0;0;0;0;0
7.392165645013586;-0.0047139673682600816;0;0;0;0;0
7.401853935505085;-0.0038268343236509124;0;0;0;0;0
7.411542225996584;-0.002902846772544676;0;0;0;0;0
7.4212305164880821;-0.0019509032201613747;0;0;0;0;0
7.4309188069795811;-0.00098017140329573812;0;0;0;0;0
7.4406070974710801;-2.9391523179536474e-17;0;0;0;0;0
7.4502953879625791;0.00098017140329553797;0;0;0;0;0
7.4599836784540781;0.0019509032201611776;0;0;0;0;0
7.4696719689455762;0.0029028467725444838;0;0;0;0;0
7.4793602594370752;0.0038268343236508577;0;0;0;0;0
7.4890485499285742;0.0047139673682599047;0;0;0;0;0
7.4987368404200732;0.0055557023301959219;0;0;0;0;0
7.5084251309115713;0.0063439328416363319;0;0;0;0;0
7.5181134214030703;0.0070710678118654363;0;0;0;0;0
7.5278017118945693;0.0077301045336273088;0;0;0;0;0
7.5374900023860683;0.008314696123025378;0;0;0;0;0
7.5471782928775673;0.0088192126434835354;0;0;0;0;0
7.5568665833690654;0.0092387953251128405;0;0;0;0;0
7.5665548738605644;0.009569403357322058;0;0;0;0;0
7.5762431643520634;0.0098078528040323031;0;0;0;0;0
7.5859314548435623;0.0099518472667219655;0;0;0;0;0
7.5956197453350605;0.01;0;0;0;0;0
7.6053080358265595;0.0099518472667219811;0;0;0;0;0
7.6149963263180585;0.0098078528040323083;0;0;0;0;0
7.6246846168095574;0.0095694033573221048;0;0;0;0;0
7.6343729073010564;0.0092387953251129046;0;0;0;0;0
7.6440611977925546;0.0088192126434836135;0;0;0;0;0
7.6537494882840535;0.0083146961230254699;0;0;0;0;0
7.6634377787755525;0.0077301045336274146;0;0;0;0;0
7.6731260692670515;0.0070710678118655534;0;0;0;0;0
7.6828143597585505;0.0063439328416364602;0;0;0;0;0
7.6925026502500486;0.0055557023301960606;0;0;0;0;0
7.7021909407415476;0.0047139673682600513;0;0;0;0;0
7.7118792312330466;0.0038268343236510121;0;0;0;0;0
7.7215675217245456;0.0029028467725446434;0;0;0;0;0
7.7312558122160437;0.0019509032201613411;0;0;0;0;0
7.7409441027075427;0.00098017140329570386;0;0;0;0;0
7.7506323931990417;1.3719758034269886e-16;0;0;0;0;0
7.7603206836905407;-0.00098017140329557224;0;0;0;0;0
7.7700089741820397;-0.0019509032201612112;0;0;0;0;0
7.7796972646735378;-0.0029028467725445168;0;0;0;0;0
7.7893855551650368;-0.0038268343236507584;0;0;0;0;0
7.7990738456565358;-0.004713967368259935;0;0;0;0;0
7.8087621361480348;-0.0055557023301959505;0;0;0;0;0
7.8184504266395329;-0.0063439328416363587;0;0;0;0;0
7.8281387171310319;-0.0070710678118653591;0;0;0;0;0
7.8378270076225309;-0.0077301045336273314;0;0;0;0;0
7.8475152981140299;-0.0083146961230253971;0;0;0;0;0
7.8572035886055289;-0.0088192126434835511;0;0;0;0;0
7.866891879097027;-0.0092387953251128006;0;0;0;0;0
7.876580169588526;-0.0095694033573220667;0;0;0;0;0
7.886268460080025;-0.0098078528040322823;0;0;0;0;0
7.895956750571524;-0.0099518472667219689;0;0;0;0;0
7.905645041063023;-0.01;0;0;0;0;0
7.9153333315545211;-0.0099518472667219776;0;0;0;0;0
7.9250216220460201;-0.0098078528040323291;0;0;0;0;0
7.9347099125375191;-0.0095694033573220962;0;0;0;0;0
7.9443982030290181;-0.0092387953251128925;0;0;0;0;0
7.9540864935205162;-0.0088192126434835979;0;0;0;0;0
7.9637747840120152;-0.0083146961230255306;0;0;0;0;0
7.9734630745035142;-0.0077301045336273938;0;0;0;0;0
7.9831513649950132;-0.0070710678118655291;0;0;0;0;0
7.9928396554865122;-0.0063439328416365435;0;0;0;0;0
8.0025279459780112;-0.005555702330196032;0;0;0;0;0
8.0122162364695093;-0.0047139673682600209;0;0;0;0;0
8.0219045269610074;-0.0038268343236511114;0;0;0;0;0
8.0315928174525073;-0.0029028467725446105;0;0;0;0;0
8.0412811079440054;-0.0019509032201614469;0;0;0;0;0
8.0509693984355053;-0.00098017140329566981;0;0;0;0;0
8.0606576889270034;-1.0289509035384121e-16;0;0;0;0;0
8.0703459794185015;0.0009801714032954649;0;0;0;0;0
8.0800342699100014;0.0019509032201612448;0;0;0;0;0
8.0897225604014995;0.0029028467725445493;0;0;0;0;0
8.0994108508929994;0.0038268343236509219;0;0;0;0;0
8.1090991413844975;0.0047139673682599645;0;0;0;0;0
8.1187874318759956;0.0055557023301958611;0;0;0;0;0
8.1284757223674955;0.0063439328416363848;0;0;0;0;0
8.1381640128589936;0.0070710678118653834;0;0;0;0;0
8.1478523033504935;0.0077301045336273522;0;0;0;0;0
8.1575405938419916;0.0083146961230254161;0;0;0;0;0
8.1672288843334897;0.0088192126434835007;0;0;0;0;0
8.1769171748249896;0.0092387953251128682;0;0;0;0;0
8.1866054653164877;0.0095694033573220771;0;0;0;0;0
8.1962937558079858;0.0098078528040322615;0;0;0;0;0
8.2059820462994857;0.0099518472667219568;0;0;0;0;0
8.2156703367909838;0.01;0;0;0;0;0
8.2253586272824837;0.0099518472667219741;0;0;0;0;0
8.2350469177739818;0.0098078528040323222;0;0;0;0;0
8.2447352082654799;0.0095694033573221274;0;0;0;0;0
8.2544234987569798;0.0092387953251128786;0;0;0;0;0
8.2641117892484779;0.0088192126434835823;0;0;0;0;0
8.2738000797399778;0.0083146961230254317;0;0;0;0;0
8.2834883702314759;0.0077301045336274615;0;0;0;0;0
8.293176660722974;0.0070710678118656054;0;0;0;0;0
8.3028649512144739;0.0063439328416365175;0;0;0;0;0
8.312553241705972;0.0055557023301961222;0;0;0;0;0
8.3222415321974719;0.0047139673682599905;0;0;0;0;0
8.33192982268897;0.0038268343236509488;0;0;0;0;0
8.3416181131804681;0.0029028467725447137;0;0;0;0;0
8.351306403671968;0.0019509032201612737;0;0;0;0;0
8.3609946941634661;0.00098017140329577693;0;0;0;0;0
8.370682984654966;6.8592600364983554e-17;0;0;0;0;0
8.3803712751464641;-0.00098017140329549916;0;0;0;0;0
8.3900595656379622;-0.001950903220161139;0;0;0;0;0
8.3997478561294621;-0.0029028467725445823;0;0;0;0;0
8.4094361466209602;-0.0038268343236508217;0;0;0;0;0
8.4191244371124583;-0.00471396736825987;0;0;0;0;0
8.4288127276039582;-0.0055557023301960077;0;0;0;0;0
8.4385010180954563;-0.0063439328416363015;0;0;0;0;0
8.4481893085869562;-0.0070710678118655083;0;0;0;0;0
8.4578775990784543;-0.0077301045336272845;0;0;0;0;0
8.4675658895699524;-0.0083146961230253554;0;0;0;0;0
8.4772541800614523;-0.0088192126434835181;0;0;0;0;0
8.4869424705529504;-0.0092387953251128266;0;0;0;0;0
8.4966307610444503;-0.0095694033573220875;0;0;0;0;0
8.5063190515359484;-0.0098078528040322962;0;0;0;0;0
8.5160073420274465;-0.0099518472667219481;0;0;0;0;0
8.5256956325189464;-0.01;0;0;0;0;0
8.5353839230104445;-0.0099518472667219846;0;0;0;0;0
8.5450722135019443;-0.0098078528040323153;0;0;0;0;0
8.5547605039934425;-0.009569403357322117;0;0;0;0;0
8.5644487944849406;-0.0092387953251129203;0;0;0;0;0
8.5741370849764404;-0.0088192126434835667;0;0;0;0;0
8.5838253754679386;-0.0083146961230254925;0;0;0;0;0
8.5935136659594367;-0.0077301045336274398;0;0;0;0;0
8.6032019564509365;-0.0070710678118654805;0;0;0;0;0
8.6128902469424347;-0.0063439328416366007;0;0;0;0;0
8.6225785374339345;-0.0055557023301960927;0;0;0;0;0
8.6322668279254327;-0.004713967368260086;0;0;0;0;0
8.6419551184169308;-0.0038268343236510485;0;0;0;0;0
8.6516434089084306;-0.0029028467725446812;0;0;0;0;0
8.6613316993999288;-0.0019509032201613793;0;0;0;0;0
8.6710199898914286;-0.00098017140329560151;0;0;0;0;0
8.6807082803829267;-3.4290110376125888e-17;0;0;0;0;0
8.6903965708744249;0.00098017140329539182;0;0;0;0;0
8.7000848613659247;0.0019509032201611729;0;0;0;0;0
8.7097731518574228;0.0029028467725444791;0;0;0;0;0
8.7194614423489227;0.0038268343236508534;0;0;0;0;0
8.7291497328404208;0.0047139673682599003;0;0;0;0;0
8.7388380233319189;0.0055557023301959175;0;0;0;0;0
8.7485263138234188;0.0063439328416364385;0;0;0;0;0
8.7582146043149169;0.0070710678118654328;0;0;0;0;0
8.7679028948064168;0.0077301045336273964;0;0;0;0;0
8.7775911852979149;0.0083146961230253745;0;0;0;0;0
8.787279475789413;0.008819212643483466;0;0;0;0;0
8.7969677662809129;0.0092387953251128387;0;0;0;0;0
8.806656056772411;0.0095694033573220563;0;0;0;0;0
8.8163443472639091;0.0098078528040322754;0;0;0;0;0
8.826032637755409;0.0099518472667219637;0;0;0;0;0
8.8357209282469071;0.01;0;0;0;0;0
8.845409218738407;0.0099518472667219672;0;0;0;0;0
8.8550975092299051;0.0098078528040323361;0;0;0;0;0
8.8647857997214032;0.0095694033573221482;0;0;0;0;0
8.8744740902129031;0.0092387953251129064;0;0;0;0;0
8.8841623807044012;0.008819212643483617;0;0;0;0;0
8.8938506711959011;0.0083146961230254734;0;0;0;0;0
8.9035389616873992;0.0077301045336274181;0;0;0;0;0
8.9132272521788973;0.0070710678118655569;0;0;0;0;0
8.9229155426703972;0.0063439328416364637;0;0;0;0;0
8.9326038331618953;0.0055557023301961829;0;0;0;0;0
8.9422921236533952;0.0047139673682599307;0;0;0;0;0
8.9519804141448933;0.0038268343236510169;0;0;0;0;0
8.9616687046363914;0.0029028467725447839;0;0;0;0;0
8.9713569951278913;0.0019509032201613459;0;0;0;0;0
8.9810452856193894;0.00098017140329570884;0;0;0;0;0
8.9907335761108875;1.4209616753928826e-16;0;0;0;0;0
9.0004218666023874;-0.00098017140329556725;0;0;0;0;0
9.0101101570938855;-0.0019509032201612065;0;0;0;0;0
9.0197984475853854;-0.0029028467725446482;0;0;0;0;0
9.0294867380768835;-0.0038268343236507541;0;0;0;0;0
9.0391750285683816;-0.0047139673682598049;0;0;0;0;0
9.0488633190598815;-0.0055557023301959461;0;0;0;0;0
9.0585516095513796;-0.0063439328416363544;0;0;0;0;0
9.0682399000428795;-0.0070710678118654563;0;0;0;0;0
9.0779281905343776;-0.0077301045336273279;0;0;0;0;0
9.0876164810258757;-0.0083146961230253953;0;0;0;0;0
9.0973047715173756;-0.0088192126434835493;0;0;0;0;0
9.1069930620088737;-0.0092387953251127971;0;0;0;0;0
9.1166813525003736;-0.0095694033573220667;0;0;0;0;0
9.1263696429918717;-0.0098078528040322806;0;0;0;0;0
9.1360579334833698;-0.0099518472667219533;0;0;0;0;0
9.1457462239748697;-0.01;0;0;0;0;0
9.1554345144663678;-0.0099518472667219776;0;0;0;0;0
9.1651228049578677;-0.0098078528040323031;0;0;0;0;0
9.1748110954493658;-0.0095694033573220979;0;0;0;0;0
9.1844993859408639;-0.009238795325112948;0;0;0;0;0
9.1941876764323638;-0.0088192126434836014;0;0;0;0;0
9.2038759669238619;-0.0083146961230255341;0;0;0;0;0
9.21356425741536;-0.0077301045336274866;0;0;0;0;0
9.2232525479068599;-0.0070710678118655326;0;0;0;0;0
9.232940838398358;-0.006343932841636547;0;0;0;0;0
9.2426291288898579;-0.0055557023301960363;0;0;0;0;0
9.252317419381356;-0.0047139673682600252;0;0;0;0;0
9.2620057098728541;-0.0038268343236511162;0;0;0;0;0
9.271694000364354;-0.002902846772544751;0;0;0;0;0
9.2813822908558521;-0.0019509032201614515;0;0;0;0;0
9.291070581347352;-0.00098017140329567458;0;0;0;0;0
9.3007588718388501;-1.0779367755043061e-16;0;0;0;0;0
9.3104471623303482;0.00098017140329546013;0;0;0;0;0
9.3201354528218481;0.0019509032201612401;0;0;0;0;0
9.3298237433133462;0.002902846772544545;0;0;0;0;0
9.3395120338048461;0.0038268343236509171;0;0;0;0;0
9.3492003242963442;0.0047139673682598353;0;0;0;0;0
9.3588886147878423;0.0055557023301958568;0;0;0;0;0
9.3685769052793422;0.0063439328416363804;0;0;0;0;0
9.3782651957708403;0.0070710678118653808;0;0;0;0;0
9.3879534862623402;0.0077301045336273504;0;0;0;0;0
9.3976417767538383;0.0083146961230254144;0;0;0;0;0
9.4073300672453364;0.008819212643483499;0;0;0;0;0
9.4170183577368363;0.0092387953251128647;0;0;0;0;0
9.4267066482283344;0.0095694033573220771;0;0;0;0;0
9.4363949387198325;0.0098078528040322598;0;0;0;0;0
9.4460832292113324;0.0099518472667219568;0;0;0;0;0
9.4557715197028305;0.01;0;0;0;0;0
9.4654598101943304;0.0099518472667219759;0;0;0;0;0
9.4751481006858285;0.0098078528040323239;0;0;0;0;0
9.4848363911773266;0.0095694033573221291;0;0;0;0;0
9.4945246816688265;0.0092387953251128804;0;0;0;0;0
9.5042129721603246;0.008819212643483584;0;0;0;0;0
9.5139012626518245;0.0083146961230254352;0;0;0;0;0
9.5235895531433226;0.0077301045336274641;0;0;0;0;0
9.5332778436348207;0.0070710678118656089;0;0;0;0;0
9.5429661341263206;0.0063439328416365218;0;0;0;0;0
9.5526544246178187;0.0055557023301961266;0;0;0;0;0
9.5623427151093185;0.0047139673682599957;0;0;0;0;0
9.5720310056008167;0.0038268343236509536;0;0;0;0;0
9.5817192960923148;0.0029028467725447185;0;0;0;0;0
9.5914075865838146;0.0019509032201612787;0;0;0;0;0
9.6010958770753128;0.00098017140329578192;0;0;0;0;0
9.6107841675668126;7.3491187561572956e-17;0;0;0;0;0
9.6204724580583107;-0.00098017140329549417;0;0;0;0;0
9.6301607485498089;-0.0019509032201611343;0;0;0;0;0
9.6398490390413087;-0.0029028467725445779;0;0;0;0;0
9.6495373295328069;-0.0038268343236508174;0;0;0;0;0
9.659225620024305;-0.0047139673682598656;0;0;0;0;0
9.6689139105158048;-0.0055557023301960034;0;0;0;0;0
9.678602201007303;-0.0063439328416362972;0;0;0;0;0
9.6882904914988028;-0.0070710678118654051;0;0;0;0;0
9.6979787819903009;-0.007730104533627281;0;0;0;0;0
9.7076670724817991;-0.0083146961230253537;0;0;0;0;0
9.7173553629732989;-0.0088192126434835146;0;0;0;0;0
9.727043653464797;-0.0092387953251128248;0;0;0;0;0
9.7367319439562969;-0.0095694033573220857;0;0;0;0;0
9.746420234447795;-0.0098078528040322945;0;0;0;0;0
9.7561085249392931;-0.0099518472667219464;0;0;0;0;0
9.765796815430793;-0.01;0;0;0;0;0
9.7754851059222911;-0.0099518472667219846;0;0;0;0;0
9.785173396413791;-0.009807852804032317;0;0;0;0;0
9.7948616869052891;-0.0095694033573221187;0;0;0;0;0
9.8045499773967872;-0.009238795325112922;0;0;0;0;0
9.8142382678882871;-0.0088192126434835684;0;0;0;0;0
9.8239265583797852;-0.0083146961230254942;0;0;0;0;0
9.8336148488712833;-0.0077301045336275334;0;0;0;0;0
9.8433031393627832;-0.0070710678118655846;0;0;0;0;0
9.8529914298542813;-0.0063439328416366051;0;0;0;0;0
9.8626797203457812;-0.0055557023301960971;0;0;0;0;0
9.8723680108372793;-0.0047139673682600903;0;0;0;0;0
9.8820563013287774;-0.0038268343236510529;0;0;0;0;0
9.8917445918202773;-0.0029028467725446855;0;0;0;0;0
9.9014328823117754;-0.0019509032201613841;0;0;0;0;0
9.9111211728032753;-0.00098017140329560628;0;0;0;0;0
9.9208094632947734;-3.9188697572715302e-17;0;0;0;0;0
9.9304977537862715;0.00098017140329538684;0;0;0;0;0
9.9401860442777714;0.0019509032201611679;0;0;0;0;0
9.9498743347692695;0.0029028467725444747;0;0;0;0;0
9.9595626252607694;0.0038268343236508491;0;0;0;0;0
9.9692509157522675;0.004713967368259896;0;0;0;0;0
