#Time;LinearAccX;LinearAccY;LinearAccZ;AngularAccX;AngularAccY;AngularAccZ
0;0;0;0;0;0;0
0.012427899267581487;0.00098017140329560606;0;0;0;0;0
0.024855798535162975;0.0019509032201612826;0;0;0;0;0
0.037283697802744459;0.0029028467725446235;0;0;0;0;0
0.04971159707032595;0.0038268343236508981;0;0;0;0;0
0.062139496337907441;0.0047139673682599767;0;0;0;0;0
0.074567395605488918;0.0055557023301960207;0;0;0;0;0
0.086995294873070408;0.006343932841636455;0;0;0;0;0
0.099423194140651899;0.0070710678118654745;0;0;0;0;0
0.11185109340823339;0.0077301045336273704;0;0;0;0;0
0.12427899267581488;0.0083146961230254526;0;0;0;0;0
0.13670689194339636;0.0088192126434835493;0;0;0;0;0
0.14913479121097784;0.0092387953251128665;0;0;0;0;0
0.16156269047855934;0.0095694033573220892;0;0;0;0;0
0.17399058974614082;0.0098078528040323049;0;0;0;0;0
0.18641848901372232;0.0099518472667219689;0;0;0;0;0
0.1988463882813038;0.01;0;0;0;0;0
0.21127428754888528;0.0099518472667219689;0;0;0;0;0
0.22370218681646678;0.0098078528040323049;0;0;0;0;0
0.23613008608404826;0.0095694033573220892;0;0;0;0;0
0.24855798535162976;0.0092387953251128682;0;0;0;0;0
0.26098588461921124;0.0088192126434835511;0;0;0;0;0
0.27341378388679272;0.0083146961230254543;0;0;0;0;0
0.28584168315437419;0.0077301045336273713;0;0;0;0;0
0.29826958242195567;0.0070710678118654788;0;0;0;0;0
0.3106974816895372;0.006343932841636455;0;0;0;0;0
0.32312538095711868;0.0055557023301960251;0;0;0;0;0
0.33555328022470016;0.0047139673682599784;0;0;0;0;0
0.34798117949228163;0.0038268343236508989;0;0;0;0;0
0.36040907875986311;0.0029028467725446278;0;0;0;0;0
0.37283697802744464;0.0019509032201612817;0;0;0;0;0
0.38526487729502612;0.00098017140329560823;0;0;0;0;0
0.3976927765626076;1.2246467991473532e-18;0;0;0;0;0
0.41012067583018907;-0.00098017140329560151;0;0;0;0;0
0.42254857509777055;-0.0019509032201612791;0;0;0;0;0
0.43497647436535208;-0.0029028467725446213;0;0;0;0;0
0.44740437363293356;-0.0038268343236508968;0;0;0;0;0
0.45983227290051504;-0.0047139673682599767;0;0;0;0;0
0.47226017216809651;-0.0055557023301960199;0;0;0;0;0
0.48468807143567799;-0.0063439328416364524;0;0;0;0;0
0.49711597070325952;-0.0070710678118654745;0;0;0;0;0
0.509543869970841;-0.0077301045336273669;0;0;0;0;0
0.52197176923842248;-0.0083146961230254526;0;0;0;0;0
0.53439966850600396;-0.0088192126434835493;0;0;0;0;0
0.54682756777358543;-0.0092387953251128647;0;0;0;0;0
0.55925546704116691;-0.0095694033573220892;0;0;0;0;0
0.57168336630874839;-0.0098078528040323031;0;0;0;0;0
0.58411126557632986;-0.0099518472667219689;0;0;0;0;0
0.59653916484391134;-0.01;0;0;0;0;0
0.60896706411149293;-0.0099518472667219689;0;0;0;0;0
0.62139496337907441;-0.0098078528040323049;0;0;0;0;0
0.63382286264665588;-0.0095694033573220892;0;0;0;0;0
0.64625076191423736;-0.00923879532511287;0;0;0;0;0
0.65867866118181884;-0.0088192126434835511;0;0;0;0;0
0.67110656044940031;-0.0083146961230254543;0;0;0;0;0
0.68353445971698179;-0.0077301045336273747;0;0;0;0;0
0.69596235898456327;-0.0070710678118654771;0;0;0;0;0
0.70839025825214474;-0.0063439328416364594;0;0;0;0;0
0.72081815751972622;-0.0055557023301960294;0;0;0;0;0
0.73324605678730781;-0.0047139673682599793;0;0;0;0;0
0.74567395605488929;-0.0038268343236508959;0;0;0;0;0
0.75810185532247076;-0.0029028467725446252;0;0;0;0;0
0.77052975459005224;-0.0019509032201612873;0;0;0;0;0
0.78295765385763372;-0.00098017140329560498;0;0;0;0;0
0.79538555312521519;-2.4492935982947064e-18;0;0;0;0;0
0.80781345239279667;0.00098017140329560021;0;0;0;0;0
0.82024135166037815;0.0019509032201612737;0;0;0;0;0
0.83266925092795963;0.00290284677254462;0;0;0;0;0
0.8450971501955411;0.0038268343236508911;0;0;0;0;0
0.85752504946312258;0.004713967368259968;0;0;0;0;0
0.86995294873070417;0.0055557023301960181;0;0;0;0;0
0.88238084799828564;0.0063439328416364559;0;0;0;0;0
0.89480874726586712;0.0070710678118654736;0;0;0;0;0
0.9072366465334486;0.007730104533627366;0;0;0;0;0
0.91966454580103008;0.0083146961230254526;0;0;0;0;0
0.93209244506861155;0.0088192126434835493;0;0;0;0;0
0.94452034433619303;0.0092387953251128647;0;0;0;0;0
0.95694824360377451;0.0095694033573220857;0;0;0;0;0
0.96937614287135598;0.0098078528040323031;0;0;0;0;0
0.98180404213893746;0.0099518472667219689;0;0;0;0;0
0.99423194140651905;0.01;0;0;0;0;0
1.0066598406741005;0.0099518472667219689;0;0;0;0;0
1.019087739941682;0.0098078528040323066;0;0;0;0;0
1.0315156392092635;0.0095694033573220875;0;0;0;0;0
1.043943538476845;0.0092387953251128682;0;0;0;0;0
1.0563714377444264;0.0088192126434835511;0;0;0;0;0
1.0687993370120079;0.008314696123025456;0;0;0;0;0
1.0812272362795894;0.0077301045336273756;0;0;0;0;0
1.0936551355471709;0.007071067811865484;0;0;0;0;0
1.1060830348147523;0.0063439328416364672;0;0;0;0;0
1.1185109340823338;0.0055557023301960233;0;0;0;0;0
1.1309388333499153;0.0047139673682599801;0;0;0;0;0
1.1433667326174968;0.003826834323650905;0;0;0;0;0
1.1557946318850782;0.0029028467725446343;0;0;0;0;0
1.1682225311526597;0.0019509032201612973;0;0;0;0;0
1.1806504304202412;0.00098017140329562406;0;0;0;0;0
1.1930783296878227;2.1437508791444563e-17;0;0;0;0;0
1.2055062289554044;-0.00098017140329559891;0;0;0;0;0
1.2179341282229859;-0.0019509032201612899;0;0;0;0;0
1.2303620274905673;-0.0029028467725446278;0;0;0;0;0
1.2427899267581488;-0.0038268343236508985;0;0;0;0;0
1.2552178260257303;-0.0047139673682599741;0;0;0;0;0
1.2676457252933118;-0.0055557023301960173;0;0;0;0;0
1.2800736245608932;-0.0063439328416364472;0;0;0;0;0
1.2925015238284747;-0.0070710678118654658;0;0;0;0;0
1.3049294230960562;-0.0077301045336273713;0;0;0;0;0
1.3173573223636377;-0.0083146961230254508;0;0;0;0;0
1.3297852216312191;-0.0088192126434835493;0;0;0;0;0
1.3422131208988006;-0.0092387953251128647;0;0;0;0;0
1.3546410201663821;-0.0095694033573220857;0;0;0;0;0
1.3670689194339636;-0.0098078528040323014;0;0;0;0;0
1.3794968187015451;-0.0099518472667219672;0;0;0;0;0
1.3919247179691265;-0.01;0;0;0;0;0
1.404352617236708;-0.0099518472667219689;0;0;0;0;0
1.4167805165042895;-0.0098078528040323066;0;0;0;0;0
1.429208415771871;-0.0095694033573220927;0;0;0;0;0
1.4416363150394524;-0.0092387953251128734;0;0;0;0;0
1.4540642143070339;-0.0088192126434835615;0;0;0;0;0
1.4664921135746156;-0.008314696123025456;0;0;0;0;0
1.4789200128421971;-0.0077301045336273643;0;0;0;0;0
1.4913479121097786;-0.0070710678118654727;0;0;0;0;0
1.50377581137736;-0.0063439328416364541;0;0;0;0;0
1.5162037106449415;-0.0055557023301960242;0;0;0;0;0
1.528631609912523;-0.0047139673682599819;0;0;0;0;0
1.5410595091801045;-0.0038268343236509063;0;0;0;0;0
1.553487408447686;-0.0029028467725446356;0;0;0;0;0
1.5659153077152674;-0.0019509032201612808;0;0;0;0;0
1.5783432069828489;-0.00098017140329560758;0;0;0;0;0
1.5907711062504304;-4.8985871965894128e-18;0;0;0;0;0
1.6031990055180119;0.00098017140329559782;0;0;0;0;0
1.6156269047855933;0.0019509032201612715;0;0;0;0;0
1.6280548040531748;0.0029028467725446096;0;0;0;0;0
1.6404827033207563;0.0038268343236508807;0;0;0;0;0
1.6529106025883378;0.0047139673682599732;0;0;0;0;0
1.6653385018559193;0.0055557023301960164;0;0;0;0;0
1.6777664011235007;0.0063439328416364472;0;0;0;0;0
1.6901943003910822;0.0070710678118654658;0;0;0;0;0
1.7026221996586637;0.0077301045336273591;0;0;0;0;0
1.7150500989262452;0.0083146961230254422;0;0;0;0;0
1.7274779981938269;0.0088192126434835476;0;0;0;0;0
1.7399058974614083;0.0092387953251128647;0;0;0;0;0
1.7523337967289898;0.0095694033573220909;0;0;0;0;0
1.7647616959965713;0.0098078528040323049;0;0;0;0;0
1.7771895952641528;0.0099518472667219689;0;0;0;0;0
1.7896174945317342;0.01;0;0;0;0;0
1.8020453937993157;0.0099518472667219689;0;0;0;0;0
1.8144732930668972;0.0098078528040323066;0;0;0;0;0
1.8269011923344787;0.0095694033573220927;0;0;0;0;0
1.8393290916020602;0.0092387953251128682;0;0;0;0;0
1.8517569908696416;0.0088192126434835528;0;0;0;0;0
1.8641848901372231;0.0083146961230254578;0;0;0;0;0
1.8766127894048046;0.0077301045336273765;0;0;0;0;0
1.8890406886723861;0.0070710678118654858;0;0;0;0;0
1.9014685879399675;0.0063439328416364698;0;0;0;0;0
1.913896487207549;0.0055557023301960398;0;0;0;0;0
1.9263243864751305;0.0047139673682599827;0;0;0;0;0
1.938752285742712;0.0038268343236509072;0;0;0;0;0
1.9511801850102934;0.0029028467725446365;0;0;0;0;0
1.9636080842778749;0.0019509032201612995;0;0;0;0;0
1.9760359835454564;0.00098017140329562645;0;0;0;0;0
1.9884638828130381;6.1232339957367663e-18;0;0;0;0;0
2.0008917820806196;-0.00098017140329559652;0;0;0;0;0
2.0133196813482011;-0.0019509032201612876;0;0;0;0;0
2.0257475806157825;-0.0029028467725446083;0;0;0;0;0
2.038175479883364;-0.0038268343236508794;0;0;0;0;0
2.0506033791509455;-0.0047139673682599567;0;0;0;0;0
2.063031278418527;-0.0055557023301960294;0;0;0;0;0
2.0754591776861084;-0.0063439328416364594;0;0;0;0;0
2.0878870769536899;-0.0070710678118654771;0;0;0;0;0
2.1003149762212714;-0.0077301045336273687;0;0;0;0;0
2.1127428754888529;-0.0083146961230254508;0;0;0;0;0
2.1251707747564343;-0.0088192126434835476;0;0;0;0;0
2.1375986740240158;-0.009238795325112863;0;0;0;0;0
2.1500265732915973;-0.0095694033573220857;0;0;0;0;0
2.1624544725591788;-0.0098078528040323014;0;0;0;0;0
2.1748823718267603;-0.0099518472667219672;0;0;0;0;0
2.1873102710943417;-0.01;0;0;0;0;0
2.1997381703619232;-0.0099518472667219724;0;0;0;0;0
2.2121660696295047;-0.0098078528040323118;0;0;0;0;0
2.2245939688970862;-0.0095694033573220979;0;0;0;0;0
2.2370218681646676;-0.0092387953251128682;0;0;0;0;0
2.2494497674322491;-0.0088192126434835528;0;0;0;0;0
2.2618776666998306;-0.0083146961230254578;0;0;0;0;0
2.2743055659674121;-0.0077301045336273782;0;0;0;0;0
2.2867334652349935;-0.0070710678118654866;0;0;0;0;0
2.299161364502575;-0.0063439328416364706;0;0;0;0;0
2.3115892637701565;-0.0055557023301960407;0;0;0;0;0
2.324017163037738;-0.0047139673682599992;0;0;0;0;0
2.3364450623053195;-0.0038268343236509249;0;0;0;0;0
2.3488729615729009;-0.0029028467725446551;0;0;0;0;0
2.3613008608404824;-0.0019509032201613181;0;0;0;0;0
2.3737287601080639;-0.00098017140329564531;0;0;0;0;0
2.3861566593756454;-4.2875017582889125e-17;0;0;0;0;0
2.3985845586432273;0.00098017140329559544;0;0;0;0;0
2.4110124579108088;0.0019509032201612689;0;0;0;0;0
2.4234403571783902;0.0029028467725446413;0;0;0;0;0
2.4358682564459717;0.0038268343236509111;0;0;0;0;0
2.4482961557135532;0.0047139673682599862;0;0;0;0;0
2.4607240549811347;0.0055557023301960285;0;0;0;0;0
2.4731519542487161;0.0063439328416364585;0;0;0;0;0
2.4855798535162976;0.0070710678118654762;0;0;0;0;0
2.4980077527838791;0.0077301045336273678;0;0;0;0;0
2.5104356520514606;0.0083146961230254491;0;0;0;0;0
2.5228635513190421;0.0088192126434835458;0;0;0;0;0
2.5352914505866235;0.009238795325112863;0;0;0;0;0
2.547719349854205;0.009569403357322084;0;0;0;0;0
2.5601472491217865;0.0098078528040323014;0;0;0;0;0
2.572575148389368;0.0099518472667219672;0;0;0;0;0
2.5850030476569494;0.01;0;0;0;0;0
2.5974309469245309;0.0099518472667219689;0;0;0;0;0
2.6098588461921124;0.0098078528040323049;0;0;0;0;0
2.6222867454596939;0.0095694033573220892;0;0;0;0;0
2.6347146447272753;0.0092387953251128682;0;0;0;0;0
2.6471425439948568;0.0088192126434835545;0;0;0;0;0
2.6595704432624383;0.0083146961230254578;0;0;0;0;0
2.6719983425300198;0.0077301045336273791;0;0;0;0;0
2.6844262417976013;0.0070710678118654866;0;0;0;0;0
2.6968541410651827;0.0063439328416364706;0;0;0;0;0
2.7092820403327642;0.0055557023301960416;0;0;0;0;0
2.7217099396003457;0.0047139673682600001;0;0;0;0;0
2.7341378388679272;0.0038268343236509262;0;0;0;0;0
2.7465657381355086;0.002902846772544656;0;0;0;0;0
2.7589936374030901;0.0019509032201613194;0;0;0;0;0
2.7714215366706716;0.00098017140329561127;0;0;0;0;0
2.7838494359382531;8.572527594031472e-18;0;0;0;0;0
2.7962773352058345;-0.00098017140329559414;0;0;0;0;0
2.808705234473416;-0.0019509032201612678;0;0;0;0;0
2.8211331337409975;-0.0029028467725446057;0;0;0;0;0
2.833561033008579;-0.0038268343236508772;0;0;0;0;0
2.8459889322761605;-0.0047139673682599541;0;0;0;0;0
2.8584168315437419;-0.0055557023301959982;0;0;0;0;0
2.8708447308113234;-0.0063439328416364307;0;0;0;0;0
2.8832726300789049;-0.0070710678118654502;0;0;0;0;0
2.8957005293464864;-0.0077301045336273444;0;0;0;0;0
2.9081284286140678;-0.00831469612302543;0;0;0;0;0
2.9205563278816498;-0.0088192126434835458;0;0;0;0;0
2.9329842271492312;-0.009238795325112863;0;0;0;0;0
2.9454121264168127;-0.009569403357322084;0;0;0;0;0
2.9578400256843942;-0.0098078528040323083;0;0;0;0;0
2.9702679249519757;-0.0099518472667219707;0;0;0;0;0
2.9826958242195571;-0.01;0;0;0;0;0
2.9951237234871386;-0.0099518472667219689;0;0;0;0;0
3.0075516227547201;-0.0098078528040323049;0;0;0;0;0
3.0199795220223016;-0.0095694033573220892;0;0;0;0;0
3.0324074212898831;-0.00923879532511287;0;0;0;0;0
3.0448353205574645;-0.0088192126434835545;0;0;0;0;0
3.057263219825046;-0.0083146961230254595;0;0;0;0;0
3.0696911190926275;-0.0077301045336273791;0;0;0;0;0
3.082119018360209;-0.0070710678118654884;0;0;0;0;0
3.0945469176277904;-0.0063439328416364715;0;0;0;0;0
3.1069748168953719;-0.0055557023301960433;0;0;0;0;0
3.1194027161629534;-0.0047139673682600018;0;0;0;0;0
3.1318306154305349;-0.0038268343236508946;0;0;0;0;0
3.1442585146981163;-0.0029028467725446235;0;0;0;0;0
3.1566864139656978;-0.0019509032201612858;0;0;0;0;0
3.1691143132332793;-0.00098017140329561235;0;0;0;0;0
3.1815422125008608;-9.7971743931788255e-18;0;0;0;0;0
3.1939701117684423;0.00098017140329559284;0;0;0;0;0
3.2063980110360237;0.0019509032201612665;0;0;0;0;0
3.2188259103036052;0.0029028467725446044;0;0;0;0;0
3.2312538095711867;0.0038268343236508764;0;0;0;0;0
3.2436817088387682;0.0047139673682599532;0;0;0;0;0
3.2561096081063496;0.0055557023301959973;0;0;0;0;0
3.2685375073739311;0.0063439328416364299;0;0;0;0;0
3.2809654066415126;0.0070710678118654493;0;0;0;0;0
3.2933933059090941;0.0077301045336273444;0;0;0;0;0
3.3058212051766755;0.0083146961230254474;0;0;0;0;0
3.318249104444257;0.0088192126434835458;0;0;0;0;0
3.3306770037118385;0.0092387953251128613;0;0;0;0;0
3.34310490297942;0.009569403357322084;0;0;0;0;0
3.3555328022470015;0.0098078528040322997;0;0;0;0;0
3.3679607015145829;0.0099518472667219655;0;0;0;0;0
3.3803886007821644;0.01;0;0;0;0;0
3.3928165000497459;0.0099518472667219724;0;0;0;0;0
3.4052443993173274;0.0098078528040323118;0;0;0;0;0
3.4176722985849088;0.0095694033573220996;0;0;0;0;0
3.4301001978524903;0.0092387953251128838;0;0;0;0;0
3.4425280971200718;0.0088192126434835719;0;0;0;0;0
3.4549559963876537;0.0083146961230254595;0;0;0;0;0
3.4673838956552352;0.0077301045336273799;0;0;0;0;0
3.4798117949228167;0.0070710678118654892;0;0;0;0;0
3.4922396941903981;0.0063439328416364446;0;0;0;0;0
3.5046675934579796;0.0055557023301960155;0;0;0;0;0
3.5170954927255611;0.0047139673682599715;0;0;0;0;0
3.5295233919931426;0.0038268343236508959;0;0;0;0;0
3.5419512912607241;0.0029028467725446244;0;0;0;0;0
3.5543791905283055;0.0019509032201612869;0;0;0;0;0
3.566807089795887;0.00098017140329561365;0;0;0;0;0
3.5792349890634685;1.1021821192326179e-17;0;0;0;0;0
3.59166288833105;-0.00098017140329559175;0;0;0;0;0
3.6040907875986314;-0.0019509032201612652;0;0;0;0;0
3.6165186868662129;-0.0029028467725446035;0;0;0;0;0
3.6289465861337944;-0.0038268343236508751;0;0;0;0;0
3.6413744854013759;-0.0047139673682599524;0;0;0;0;0
3.6538023846689573;-0.0055557023301959964;0;0;0;0;0
3.6662302839365388;-0.0063439328416364559;0;0;0;0;0
3.6786581832041203;-0.0070710678118654736;0;0;0;0;0
3.6910860824717018;-0.007730104533627366;0;0;0;0;0
3.7035139817392833;-0.0083146961230254474;0;0;0;0;0
3.7159418810068647;-0.0088192126434835441;0;0;0;0;0
3.7283697802744462;-0.0092387953251128613;0;0;0;0;0
3.7407976795420277;-0.0095694033573220823;0;0;0;0;0
3.7532255788096092;-0.0098078528040322997;0;0;0;0;0
3.7656534780771906;-0.0099518472667219655;0;0;0;0;0
3.7780813773447721;-0.01;0;0;0;0;0
3.7905092766123536;-0.0099518472667219724;0;0;0;0;0
3.8029371758799351;-0.0098078528040323118;0;0;0;0;0
3.8153650751475165;-0.0095694033573221014;0;0;0;0;0
3.827792974415098;-0.0092387953251128838;0;0;0;0;0
3.8402208736826795;-0.0088192126434835545;0;0;0;0;0
3.852648772950261;-0.0083146961230254595;0;0;0;0;0
3.8650766722178425;-0.0077301045336273808;0;0;0;0;0
3.8775045714854239;-0.0070710678118654901;0;0;0;0;0
3.8899324707530054;-0.0063439328416364741;0;0;0;0;0
3.9023603700205869;-0.005555702330196045;0;0;0;0;0
3.9147882692881684;-0.0047139673682600036;0;0;0;0;0
3.9272161685557498;-0.0038268343236509297;0;0;0;0;0
3.9396440678233313;-0.0029028467725446599;0;0;0;0;0
3.9520719670909128;-0.0019509032201613231;0;0;0;0;0
3.9644998663584943;-0.00098017140329565008;0;0;0;0;0
3.9769277656260762;-1.2246467991473533e-17;0;0;0;0;0
3.9893556648936577;0.00098017140329559045;0;0;0;0;0
4.0017835641612391;0.0019509032201612641;0;0;0;0;0
4.0142114634288202;0.0029028467725445684;0;0;0;0;0
4.0266393626964021;0.0038268343236509067;0;0;0;0;0
4.0390672619639831;0.0047139673682599506;0;0;0;0;0
4.0514951612315651;0.0055557023301959956;0;0;0;0;0
4.0639230604991461;0.0063439328416363995;0;0;0;0;0
4.076350959766728;0.0070710678118654485;0;0;0;0;0
4.088778859034309;0.0077301045336273201;0;0;0;0;0
4.101206758301891;0.0083146961230254265;0;0;0;0;0
4.113634657569472;0.0088192126434835441;0;0;0;0;0
4.1260625568370539;0.0092387953251128734;0;0;0;0;0
4.138490456104635;0.0095694033573220823;0;0;0;0;0
4.1509183553722169;0.0098078528040323066;0;0;0;0;0
4.1633462546397979;0.0099518472667219655;0;0;0;0;0
4.1757741539073798;0.01;0;0;0;0;0
4.1882020531749609;0.0099518472667219724;0;0;0;0;0
4.2006299524425428;0.0098078528040323049;0;0;0;0;0
4.2130578517101238;0.0095694033573221014;0;0;0;0;0
4.2254857509777057;0.0092387953251128717;0;0;0;0;0
4.2379136502452868;0.0088192126434835736;0;0;0;0;0
4.2503415495128687;0.0083146961230254612;0;0;0;0;0
4.2627694487804506;0.0077301045336273591;0;0;0;0;0
4.2751973480480316;0.0070710678118654918;0;0;0;0;0
4.2876252473156136;0.0063439328416364472;0;0;0;0;0
4.3000531465831946;0.0055557023301960459;0;0;0;0;0
4.3124810458507765;0.0047139673682599741;0;0;0;0;0
4.3249089451183576;0.0038268343236509306;0;0;0;0;0
4.3373368443859395;0.0029028467725446265;0;0;0;0;0
4.3497647436535205;0.0019509032201613242;0;0;0;0;0
4.3621926429211024;0.00098017140329561604;0;0;0;0;0
4.3746205421886835;4.899825157862589e-17;0;0;0;0;0
4.3870484414562654;-0.00098017140329558937;0;0;0;0;0
4.3994763407238464;-0.0019509032201612281;0;0;0;0;0
4.4119042399914283;-0.0029028467725446014;0;0;0;0;0
4.4243321392590094;-0.0038268343236508404;0;0;0;0;0
4.4367600385265913;-0.0047139673682599498;0;0;0;0;0
4.4491879377941723;-0.0055557023301959652;0;0;0;0;0
4.4616158370617542;-0.0063439328416364264;0;0;0;0;0
4.4740437363293353;-0.007071067811865471;0;0;0;0;0
4.4864716355969172;-0.0077301045336273869;0;0;0;0;0
4.4988995348644982;-0.0083146961230254456;0;0;0;0;0
4.5113274341320801;-0.0088192126434835615;0;0;0;0;0
4.5237553333996612;-0.0092387953251128613;0;0;0;0;0
4.5361832326672431;-0.0095694033573220927;0;0;0;0;0
4.5486111319348241;-0.0098078528040322997;0;0;0;0;0
4.5610390312024061;-0.0099518472667219689;0;0;0;0;0
4.5734669304699871;-0.01;0;0;0;0;0
4.585894829737569;-0.0099518472667219689;0;0;0;0;0
4.59832272900515;-0.0098078528040323118;0;0;0;0;0
4.610750628272732;-0.0095694033573220909;0;0;0;0;0
4.623178527540313;-0.0092387953251128856;0;0;0;0;0
4.6356064268078949;-0.0088192126434835563;0;0;0;0;0
4.648034326075476;-0.0083146961230254821;0;0;0;0;0
4.6604622253430579;-0.0077301045336273825;0;0;0;0;0
4.6728901246106389;-0.007071067811865517;0;0;0;0;0
4.6853180238782208;-0.0063439328416364758;0;0;0;0;0
4.6977459231458019;-0.0055557023301960771;0;0;0;0;0
4.7101738224133838;-0.0047139673682600062;0;0;0;0;0
4.7226017216809648;-0.0038268343236509644;0;0;0;0;0
4.7350296209485467;-0.0029028467725446621;0;0;0;0;0
4.7474575202161278;-0.0019509032201613602;0;0;0;0;0
4.7598854194837097;-0.00098017140329565268;0;0;0;0;0
4.7723133187512907;-8.5750035165778251e-17;0;0;0;0;0
4.7847412180188726;0.00098017140329555272;0;0;0;0;0
4.7971691172864546;0.0019509032201612618;0;0;0;0;0
4.8095970165540356;0.0029028467725445662;0;0;0;0;0
4.8220249158216175;0.0038268343236508716;0;0;0;0;0
4.8344528150891986;0.0047139673682599801;0;0;0;0;0
4.8468807143567805;0.005555702330196052;0;0;0;0;0
4.8593086136243615;0.0063439328416364524;0;0;0;0;0
4.8717365128919434;0.0070710678118654962;0;0;0;0;0
4.8841644121595245;0.0077301045336273634;0;0;0;0;0
4.8965923114271064;0.0083146961230254647;0;0;0;0;0
4.9090202106946874;0.0088192126434835424;0;0;0;0;0
4.9214481099622693;0.0092387953251128734;0;0;0;0;0
4.9338760092298504;0.0095694033573220823;0;0;0;0;0
4.9463039084974323;0.0098078528040323066;0;0;0;0;0
4.9587318077650133;0.0099518472667219655;0;0;0;0;0
4.9711597070325952;0.01;0;0;0;0;0
4.9835876063001763;0.0099518472667219724;0;0;0;0;0
4.9960155055677582;0.0098078528040323049;0;0;0;0;0
5.0084434048353392;0.0095694033573221014;0;0;0;0;0
5.0208713041029212;0.0092387953251128717;0;0;0;0;0
5.0332992033705022;0.0088192126434835736;0;0;0;0;0
5.0457271026380841;0.008314696123025463;0;0;0;0;0
5.0581550019056651;0.0077301045336274059;0;0;0;0;0
5.0705829011732471;0.0070710678118654927;0;0;0;0;0
5.0830108004408281;0.0063439328416365036;0;0;0;0;0
5.09543869970841;0.0055557023301960485;0;0;0;0;0
5.107866598975991;0.0047139673682600391;0;0;0;0;0
5.120294498243573;0.0038268343236509328;0;0;0;0;0
5.132722397511154;0.0029028467725446972;0;0;0;0;0
5.1451502967787359;0.0019509032201613266;0;0;0;0;0
5.157578196046317;0.00098017140329568911;0;0;0;0;0
5.1700060953138989;5.1447545176920603e-17;0;0;0;0;0
5.1824339945814799;-0.00098017140329558698;0;0;0;0;0
5.1948618938490618;-0.0019509032201612954;0;0;0;0;0
5.2072897931166429;-0.0029028467725445988;0;0;0;0;0
5.2197176923842248;-0.0038268343236509033;0;0;0;0;0
5.2321455916518058;-0.004713967368259948;0;0;0;0;0
5.2445734909193877;-0.0055557023301960216;0;0;0;0;0
5.2570013901869688;-0.0063439328416364247;0;0;0;0;0
5.2694292894545507;-0.0070710678118654701;0;0;0;0;0
5.2818571887221317;-0.00773010453362734;0;0;0;0;0
5.2942850879897136;-0.0083146961230254439;0;0;0;0;0
5.3067129872572956;-0.008819212643483558;0;0;0;0;0
5.3191408865248766;-0.0092387953251128595;0;0;0;0;0
5.3315687857924585;-0.0095694033573220909;0;0;0;0;0
5.3439966850600396;-0.0098078528040322997;0;0;0;0;0
5.3564245843276215;-0.0099518472667219689;0;0;0;0;0
5.3688524835952025;-0.01;0;0;0;0;0
5.3812803828627844;-0.0099518472667219689;0;0;0;0;0
5.3937082821303655;-0.0098078528040323118;0;0;0;0;0
5.4061361813979474;-0.0095694033573220909;0;0;0;0;0
5.4185640806655284;-0.0092387953251128873;0;0;0;0;0
5.4309919799331103;-0.008819212643483558;0;0;0;0;0
5.4434198792006914;-0.0083146961230254821;0;0;0;0;0
5.4558477784682733;-0.0077301045336273834;0;0;0;0;0
5.4682756777358543;-0.0070710678118655196;0;0;0;0;0
5.4807035770034362;-0.0063439328416364776;0;0;0;0;0
5.4931314762710173;-0.0055557023301960788;0;0;0;0;0
5.5055593755385992;-0.0047139673682600079;0;0;0;0;0
5.5179872748061802;-0.0038268343236509666;0;0;0;0;0
5.5304151740737622;-0.0029028467725446643;0;0;0;0;0
5.5428430733413432;-0.0019509032201612928;0;0;0;0;0
5.5552709726089251;-0.00098017140329558438;0;0;0;0;0
5.5676988718765061;-1.7145055188062944e-17;0;0;0;0;0
5.5801267711440881;0.00098017140329562102;0;0;0;0;0
5.5925546704116691;0.0019509032201612592;0;0;0;0;0
5.604982569679251;0.0029028467725446317;0;0;0;0;0
5.617410468946832;0.0038268343236508694;0;0;0;0;0
5.629838368214414;0.0047139673682599784;0;0;0;0;0
5.642266267481995;0.0055557023301959904;0;0;0;0;0
5.6546941667495769;0.0063439328416364507;0;0;0;0;0
5.667122066017158;0.0070710678118654433;0;0;0;0;0
5.6795499652847399;0.0077301045336273626;0;0;0;0;0
5.6919778645523209;0.0083146961230254248;0;0;0;0;0
5.7044057638199028;0.0088192126434835424;0;0;0;0;0
5.7168336630874839;0.0092387953251128457;0;0;0;0;0
5.7292615623550658;0.0095694033573220823;0;0;0;0;0
5.7416894616226468;0.0098078528040322927;0;0;0;0;0
5.7541173608902287;0.0099518472667219655;0;0;0;0;0
5.7665452601578098;0.01;0;0;0;0;0
5.7789731594253917;0.0099518472667219724;0;0;0;0;0
5.7914010586929727;0.0098078528040323205;0;0;0;0;0
5.8038289579605546;0.0095694033573221014;0;0;0;0;0
5.8162568572281357;0.0092387953251128994;0;0;0;0;0
5.8286847564957176;0.0088192126434835753;0;0;0;0;0
5.8411126557632995;0.008314696123025463;0;0;0;0;0
5.8535405550308806;0.0077301045336274068;0;0;0;0;0
5.8659684542984625;0.0070710678118654944;0;0;0;0;0
5.8783963535660435;0.0063439328416365062;0;0;0;0;0
5.8908242528336254;0.0055557023301960511;0;0;0;0;0
5.9032521521012065;0.0047139673682599784;0;0;0;0;0
5.9156800513687884;0.0038268343236508694;0;0;0;0;0
5.9281079506363694;0.0029028467725446317;0;0;0;0;0
5.9405358499039513;0.0019509032201612592;0;0;0;0;0
5.9529637491715324;0.00098017140329562081;0;0;0;0;0
5.9653916484391143;-1.7157434800794713e-17;0;0;0;0;0
5.9778195477066953;-0.00098017140329558438;0;0;0;0;0
5.9902474469742772;-0.001950903220161293;0;0;0;0;0
6.0026753462418583;-0.0029028467725445966;0;0;0;0;0
6.0151032455094402;-0.0038268343236509011;0;0;0;0;0
6.0275311447770212;-0.0047139673682599454;0;0;0;0;0
6.0399590440446032;-0.0055557023301960199;0;0;0;0;0
6.0523869433121842;-0.0063439328416364229;0;0;0;0;0
6.0648148425797661;-0.0070710678118654684;0;0;0;0;0
6.0772427418473471;-0.0077301045336273392;0;0;0;0;0
6.0896706411149291;-0.0083146961230254439;0;0;0;0;0
6.1020985403825101;-0.0088192126434835233;0;0;0;0;0
6.114526439650092;-0.0092387953251128595;0;0;0;0;0
6.126954338917673;-0.0095694033573220701;0;0;0;0;0
6.139382238185255;-0.0098078528040322997;0;0;0;0;0
6.151810137452836;-0.009951847266721962;0;0;0;0;0
6.1642380367204179;-0.01;0;0;0;0;0
6.176665935987999;-0.0099518472667219759;0;0;0;0;0
6.1890938352555809;-0.0098078528040323135;0;0;0;0;0
6.2015217345231619;-0.0095694033573221135;0;0;0;0;0
6.2139496337907438;-0.0092387953251128873;0;0;0;0;0
6.2263775330583249;-0.0088192126434835927;0;0;0;0;0
6.2388054323259068;-0.0083146961230254855;0;0;0;0;0
6.2512333315934878;-0.007730104533627386;0;0;0;0;0
6.2636612308610697;-0.0070710678118654701;0;0;0;0;0
6.2760891301286508;-0.0063439328416364793;0;0;0;0;0
6.2885170293962327;-0.0055557023301960216;0;0;0;0;0
6.3009449286638137;-0.0047139673682600105;0;0;0;0;0
6.3133728279313956;-0.0038268343236509033;0;0;0;0;0
6.3258007271989767;-0.0029028467725446669;0;0;0;0;0
6.3382286264665586;-0.0019509032201612954;0;0;0;0;0
6.3506565257341396;-0.00098017140329565745;0;0;0;0;0
6.3630844250017216;-1.9594348786357651e-17;0;0;0;0;0
6.3755123242693035;0.00098017140329561864;0;0;0;0;0
6.3879402235368845;0.001950903220161257;0;0;0;0;0
6.4003681228044664;0.0029028467725446296;0;0;0;0;0
6.4127960220720475;0.0038268343236508673;0;0;0;0;0
6.4252239213396294;0.0047139673682599758;0;0;0;0;0
6.4376518206072104;0.0055557023301959895;0;0;0;0;0
6.4500797198747923;0.0063439328416364498;0;0;0;0;0
6.4625076191423734;0.0070710678118654424;0;0;0;0;0
6.4749355184099553;0.00773010453362736;0;0;0;0;0
6.4873634176775363;0.0083146961230254231;0;0;0;0;0
6.4997913169451182;0.0088192126434835406;0;0;0;0;0
6.5122192162126993;0.0092387953251128439;0;0;0;0;0
6.5246471154802812;0.0095694033573220805;0;0;0;0;0
6.5370750147478622;0.009807852804032291;0;0;0;0;0
6.5495029140154442;0.0099518472667219655;0;0;0;0;0
6.5619308132830252;0.01;0;0;0;0;0
6.5743587125506071;0.0099518472667219724;0;0;0;0;0
6.5867866118181881;0.0098078528040323205;0;0;0;0;0
6.5992145110857701;0.0095694033573221031;0;0;0;0;0
6.6116424103533511;0.0092387953251128734;0;0;0;0;0
6.624070309620933;0.0088192126434835424;0;0;0;0;0
6.636498208888514;0.0083146961230254647;0;0;0;0;0
6.648926108156096;0.0077301045336273634;0;0;0;0;0
6.661354007423677;0.0070710678118654962;0;0;0;0;0
6.6737819066912589;0.0063439328416364524;0;0;0;0;0
6.68620980595884;0.005555702330196052;0;0;0;0;0
6.6986377052264219;0.0047139673682599801;0;0;0;0;0
6.7110656044940029;0.0038268343236509375;0;0;0;0;0
6.7234935037615848;0.0029028467725446339;0;0;0;0;0
6.7359214030291659;0.0019509032201613314;0;0;0;0;0
6.7483493022967478;0.00098017140329562341;0;0;0;0;0
6.7607772015643288;5.6346132373510012e-17;0;0;0;0;0
6.7732051008319107;-0.00098017140329558199;0;0;0;0;0
6.7856330000994918;-0.001950903220161221;0;0;0;0;0
6.7980608993670737;-0.002902846772544594;0;0;0;0;0
6.8104887986346547;-0.0038268343236508334;0;0;0;0;0
6.8229166979022366;-0.0047139673682599428;0;0;0;0;0
6.8353445971698177;-0.0055557023301959583;0;0;0;0;0
6.8477724964373996;-0.0063439328416364203;0;0;0;0;0
6.8602003957049806;-0.0070710678118654172;0;0;0;0;0
6.8726282949725626;-0.0077301045336273366;0;0;0;0;0
6.8850561942401436;-0.0083146961230254023;0;0;0;0;0
6.8974840935077255;-0.0088192126434835233;0;0;0;0;0
6.9099119927753074;-0.0092387953251128578;0;0;0;0;0
6.9223398920428885;-0.0095694033573220701;0;0;0;0;0
6.9347677913104704;-0.0098078528040322979;0;0;0;0;0
6.9471956905780514;-0.009951847266721962;0;0;0;0;0
6.9596235898456333;-0.01;0;0;0;0;0
6.9720514891132144;-0.0099518472667219689;0;0;0;0;0
6.9844793883807963;-0.0098078528040322997;0;0;0;0;0
6.9969072876483773;-0.0095694033573220927;0;0;0;0;0
7.0093351869159592;-0.0092387953251128613;0;0;0;0;0
7.0217630861835403;-0.0088192126434835615;0;0;0;0;0
7.0341909854511222;-0.0083146961230254456;0;0;0;0;0
7.0466188847187032;-0.0077301045336273869;0;0;0;0;0
7.0590467839862852;-0.007071067811865471;0;0;0;0;0
7.0714746832538662;-0.0063439328416364819;0;0;0;0;0
7.0839025825214481;-0.0055557023301960242;0;0;0;0;0
7.0963304817890291;-0.0047139673682600122;0;0;0;0;0
7.1087583810566111;-0.0038268343236509059;0;0;0;0;0
7.1211862803241921;-0.002902846772544669;0;0;0;0;0
7.133614179591774;-0.0019509032201612978;0;0;0;0;0
7.1460420788593551;-0.00098017140329566006;0;0;0;0;0
7.158469978126937;-2.2043642384652358e-17;0;0;0;0;0
7.170897877394518;0.00098017140329554535;0;0;0;0;0
7.1833257766620999;0.0019509032201612544;0;0;0;0;0
7.195753675929681;0.0029028467725445589;0;0;0;0;0
7.2081815751972629;0.0038268343236508651;0;0;0;0;0
7.2206094744648439;0.0047139673682599107;0;0;0;0;0
7.2330373737324258;0.0055557023301959878;0;0;0;0;0
7.2454652730000069;0.0063439328416363926;0;0;0;0;0
7.2578931722675888;0.0070710678118654407;0;0;0;0;0
7.2703210715351698;0.0077301045336273131;0;0;0;0;0
7.2827489708027517;0.0083146961230254213;0;0;0;0;0
7.2951768700703328;0.0088192126434835059;0;0;0;0;0
7.3076047693379147;0.0092387953251128439;0;0;0;0;0
7.3200326686054957;0.0095694033573220788;0;0;0;0;0
7.3324605678730777;0.0098078528040323049;0;0;0;0;0
7.3448884671406587;0.0099518472667219655;0;0;0;0;0
7.3573163664082406;0.01;0;0;0;0;0
7.3697442656758216;0.0099518472667219724;0;0;0;0;0
7.3821721649434036;0.0098078528040323066;0;0;0;0;0
7.3946000642109846;0.0095694033573221048;0;0;0;0;0
7.4070279634785665;0.0092387953251128734;0;0;0;0;0
7.4194558627461475;0.0088192126434835771;0;0;0;0;0
7.4318837620137295;0.0083146961230254664;0;0;0;0;0
7.4443116612813114;0.007730104533627366;0;0;0;0;0
7.4567395605488924;0.0070710678118654979;0;0;0;0;0
7.4691674598164743;0.006343932841636455;0;0;0;0;0
7.4815953590840554;0.0055557023301960537;0;0;0;0;0
7.4940232583516373;0.0047139673682599819;0;0;0;0;0
7.5064511576192183;0.0038268343236509397;0;0;0;0;0
7.5188790568868002;0.0029028467725446361;0;0;0;0;0
7.5313069561543813;0.001950903220161334;0;0;0;0;0
7.5437348554219632;0.00098017140329562579;0;0;0;0;0
7.5561627546895442;5.8795425971804725e-17;0;0;0;0;0
7.5685906539571262;-0.00098017140329557961;0;0;0;0;0
7.5810185532247072;-0.0019509032201612184;0;0;0;0;0
7.5934464524922891;-0.0029028467725445918;0;0;0;0;0
7.6058743517598701;-0.0038268343236508313;0;0;0;0;0
7.6183022510274521;-0.0047139673682599411;0;0;0;0;0
7.6307301502950331;-0.0055557023301959566;0;0;0;0;0
7.643158049562615;-0.0063439328416364186;0;0;0;0;0
7.6555859488301961;-0.0070710678118654146;0;0;0;0;0
7.668013848097778;-0.0077301045336273357;0;0;0;0;0
7.680441747365359;-0.0083146961230254404;0;0;0;0;0
7.6928696466329409;-0.0088192126434835545;0;0;0;0;0
7.705297545900522;-0.0092387953251128561;0;0;0;0;0
7.7177254451681039;-0.0095694033573220892;0;0;0;0;0
7.7301533444356849;-0.0098078528040322979;0;0;0;0;0
7.7425812437032668;-0.0099518472667219689;0;0;0;0;0
7.7550091429708479;-0.01;0;0;0;0;0
7.7674370422384298;-0.0099518472667219689;0;0;0;0;0
7.7798649415060108;-0.0098078528040323153;0;0;0;0;0
7.7922928407735927;-0.0095694033573220944;0;0;0;0;0
7.8047207400411738;-0.009238795325112889;0;0;0;0;0
7.8171486393087557;-0.0088192126434835615;0;0;0;0;0
7.8295765385763367;-0.0083146961230254873;0;0;0;0;0
7.8420044378439187;-0.0077301045336273886;0;0;0;0;0
7.8544323371114997;-0.0070710678118655239;0;0;0;0;0
7.8668602363790816;-0.0063439328416364828;0;0;0;0;0
7.8792881356466626;-0.0055557023301960849;0;0;0;0;0
7.8917160349142446;-0.0047139673682600148;0;0;0;0;0
7.9041439341818256;-0.0038268343236509735;0;0;0;0;0
7.9165718334494075;-0.0029028467725446716;0;0;0;0;0
7.9289997327169885;-0.00195090322016137;0;0;0;0;0
7.9414276319845705;-0.00098017140329566244;0;0;0;0;0
7.9538555312521524;-2.4492935982947065e-17;0;0;0;0;0
7.9662834305197334;0.00098017140329554296;0;0;0;0;0
7.9787113297873153;0.001950903220161252;0;0;0;0;0
7.9911392290548964;0.0029028467725445567;0;0;0;0;0
8.0035671283224783;0.0038268343236508629;0;0;0;0;0
8.0159950275900602;0.0047139673682599715;0;0;0;0;0
8.0284229268576404;0.0055557023301959262;0;0;0;0;0
8.0408508261252223;0.0063439328416364446;0;0;0;0;0
8.0532787253928042;0.0070710678118654892;0;0;0;0;0
8.0657066246603861;0.0077301045336274025;0;0;0;0;0
8.0781345239279663;0.0083146961230254196;0;0;0;0;0
8.0905624231955482;0.0088192126434835389;0;0;0;0;0
8.1029903224631301;0.0092387953251128439;0;0;0;0;0
8.115418221730712;0.0095694033573220996;0;0;0;0;0
8.1278461209982922;0.0098078528040322771;0;0;0;0;0
8.1402740202658741;0.0099518472667219655;0;0;0;0;0
8.152701919533456;0.01;0;0;0;0;0
8.1651298188010379;0.0099518472667219655;0;0;0;0;0
8.1775577180686181;0.0098078528040323361;0;0;0;0;0
8.1899856173362;0.0095694033573221048;0;0;0;0;0
8.2024135166037819;0.0092387953251129029;0;0;0;0;0
8.2148414158713638;0.0088192126434835458;0;0;0;0;0
8.227269315138944;0.0083146961230254682;0;0;0;0;0
8.2396972144065259;0.007730104533627412;0;0;0;0;0
8.2521251136741078;0.0070710678118654493;0;0;0;0;0
8.2645530129416898;0.0063439328416364576;0;0;0;0;0
8.2769809122092699;0.0055557023301960563;0;0;0;0;0
8.2894088114768518;0.0047139673682600469;0;0;0;0;0
8.3018367107444337;0.0038268343236508764;0;0;0;0;0
8.3142646100120157;0.0029028467725446391;0;0;0;0;0
8.3266925092795958;0.0019509032201613361;0;0;0;0;0
8.3391204085471777;0.00098017140329569909;0;0;0;0;0
8.3515483078147597;-9.8095540059105926e-18;0;0;0;0;0
8.3639762070823416;-0.00098017140329557701;0;0;0;0;0
8.3764041063499217;-0.001950903220161216;0;0;0;0;0
8.3888320056175036;-0.0029028467725445211;0;0;0;0;0
8.4012599048850856;-0.0038268343236508946;0;0;0;0;0
8.4136878041526675;-0.0047139673682599385;0;0;0;0;0
8.4261157034202476;-0.0055557023301959539;0;0;0;0;0
8.4385436026878295;-0.0063439328416363613;0;0;0;0;0
8.4509715019554115;-0.0070710678118654641;0;0;0;0;0
8.4633994012229934;-0.0077301045336273348;0;0;0;0;0
8.4758273004905735;-0.0083146961230254005;0;0;0;0;0
8.4882551997581555;-0.0088192126434834869;0;0;0;0;0
8.5006830990257374;-0.0092387953251128561;0;0;0;0;0
8.5131109982933193;-0.0095694033573220684;0;0;0;0;0
8.5255388975609012;-0.0098078528040323118;0;0;0;0;0
8.5379667968284814;-0.0099518472667219551;0;0;0;0;0
8.5503946960960633;-0.01;0;0;0;0;0
8.5628225953636452;-0.0099518472667219776;0;0;0;0;0
8.5752504946312271;-0.0098078528040323014;0;0;0;0;0
8.5876783938988073;-0.0095694033573220944;0;0;0;0;0
8.6001062931663892;-0.009238795325112889;0;0;0;0;0
8.6125341924339711;-0.0088192126434835285;0;0;0;0;0
8.624962091701553;-0.0083146961230254491;0;0;0;0;0
8.6373899909691332;-0.0077301045336273903;0;0;0;0;0
8.6498178902367151;-0.0070710678118655257;0;0;0;0;0
8.662245789504297;-0.0063439328416364307;0;0;0;0;0
8.6746736887718789;-0.0055557023301960277;0;0;0;0;0
8.6871015880394591;-0.0047139673682600174;0;0;0;0;0
8.699529487307041;-0.0038268343236509757;0;0;0;0;0
8.7119573865746229;-0.0029028467725446057;0;0;0;0;0
8.7243852858422049;-0.0019509032201613025;0;0;0;0;0
8.736813185109785;-0.00098017140329566483;0;0;0;0;0
8.7492410843773669;-9.799650315725178e-17;0;0;0;0;0
8.7616689836449488;0.00098017140329561127;0;0;0;0;0
8.7740968829125308;0.0019509032201612498;0;0;0;0;0
8.7865247821801109;0.0029028467725445545;0;0;0;0;0
8.7989526814476928;0.0038268343236507948;0;0;0;0;0
8.8113805807152747;0.0047139673682599697;0;0;0;0;0
8.8238084799828567;0.0055557023301959834;0;0;0;0;0
8.8362363792504368;0.0063439328416363882;0;0;0;0;0
8.8486642785180187;0.0070710678118653869;0;0;0;0;0
8.8610921777856007;0.0077301045336273556;0;0;0;0;0
8.8735200770531826;0.0083146961230254196;0;0;0;0;0
8.8859479763207627;0.0088192126434835042;0;0;0;0;0
8.8983758755883446;0.0092387953251128144;0;0;0;0;0
8.9108037748559266;0.0095694033573220788;0;0;0;0;0
8.9232316741235085;0.0098078528040322892;0;0;0;0;0
8.9356595733910886;0.0099518472667219585;0;0;0;0;0
8.9480874726586705;0.01;0;0;0;0;0
8.9605153719262525;0.0099518472667219741;0;0;0;0;0
8.9729432711938344;0.0098078528040322945;0;0;0;0;0
8.9853711704614145;0.0095694033573221256;0;0;0;0;0
8.9977990697289965;0.0092387953251128769;0;0;0;0;0
9.0102269689965784;0.0088192126434835788;0;0;0;0;0
9.0226548682641603;0.00831469612302543;0;0;0;0;0
9.0350827675317422;0.0077301045336273678;0;0;0;0;0
9.0475106667993224;0.0070710678118655014;0;0;0;0;0
9.0599385660669043;0.006343932841636514;0;0;0;0;0
9.0723664653344862;0.0055557023301959999;0;0;0;0;0
9.0847943646020681;0.0047139673682599862;0;0;0;0;0
9.0972222638696483;0.003826834323650944;0;0;0;0;0
9.1096501631372302;0.0029028467725447089;0;0;0;0;0
9.1220780624048121;0.0019509032201612689;0;0;0;0;0
9.134505961672394;0.00098017140329563078;0;0;0;0;0
9.1469338609399742;6.3694013168394139e-17;0;0;0;0;0
9.1593617602075561;-0.00098017140329550393;0;0;0;0;0
9.171789659475138;-0.0019509032201612834;0;0;0;0;0
9.1842175587427199;-0.0029028467725445875;0;0;0;0;0
9.1966454580103001;-0.0038268343236508265;0;0;0;0;0
9.209073357277882;-0.0047139673682598743;0;0;0;0;0
9.2215012565454639;-0.0055557023301960121;0;0;0;0;0
9.2339291558130459;-0.0063439328416364151;0;0;0;0;0
9.246357055080626;-0.0070710678118654112;0;0;0;0;0
9.2587849543482079;-0.007730104533627288;0;0;0;0;0
9.2712128536157898;-0.0083146961230254387;0;0;0;0;0
9.2836407528833718;-0.0088192126434835198;0;0;0;0;0
9.2960686521509519;-0.0092387953251128283;0;0;0;0;0
9.3084965514185338;-0.0095694033573220892;0;0;0;0;0
9.3209244506861157;-0.0098078528040322962;0;0;0;0;0
9.3333523499536977;-0.0099518472667219759;0;0;0;0;0
9.3457802492212778;-0.01;0;0;0;0;0
9.3582081484888597;-0.0099518472667219707;0;0;0;0;0
9.3706360477564417;-0.0098078528040323153;0;0;0;0;0
9.3830639470240236;-0.0095694033573220736;0;0;0;0;0
9.3954918462916037;-0.0092387953251129168;0;0;0;0;0
9.4079197455591856;-0.0088192126434835632;0;0;0;0;0
9.4203476448267676;-0.008314696123025489;0;0;0;0;0
9.4327755440943495;-0.007730104533627347;0;0;0;0;0
9.4452034433619296;-0.0070710678118655777;0;0;0;0;0
9.4576313426295116;-0.0063439328416364871;0;0;0;0;0
9.4700592418970935;-0.0055557023301960893;0;0;0;0;0
9.4824871411646754;-0.0047139673682599567;0;0;0;0;0
9.4949150404322555;-0.0038268343236510438;0;0;0;0;0
9.5073429396998375;-0.002902846772544676;0;0;0;0;0
9.5197708389674194;-0.0019509032201613747;0;0;0;0;0
9.5321987382350013;-0.00098017140329559652;0;0;0;0;0
9.5446266375025814;-1.715000703315565e-16;0;0;0;0;0
9.5570545367701634;0.00098017140329553797;0;0;0;0;0
9.5694824360377453;0.0019509032201611776;0;0;0;0;0
9.5819103353053272;0.00290284677254462;0;0;0;0;0
9.5943382345729091;0.0038268343236508577;0;0;0;0;0
9.6067661338404893;0.0047139673682599047;0;0;0;0;0
9.6191940331080712;0.0055557023301959219;0;0;0;0;0
9.6316219323756531;0.006343932841636442;0;0;0;0;0
9.644049831643235;0.0070710678118654363;0;0;0;0;0
9.6564777309108152;0.0077301045336273088;0;0;0;0;0
9.6689056301783971;0.0083146961230254578;0;0;0;0;0
9.681333529445979;0.0088192126434835354;0;0;0;0;0
9.6937614287135609;0.009238795325112896;0;0;0;0;0
9.7061893279811411;0.009569403357322058;0;0;0;0;0
9.718617227248723;0.0098078528040323031;0;0;0;0;0
9.7310451265163049;0.0099518472667219655;0;0;0;0;0
9.7434730257838869;0.01;0;0;0;0;0
9.755900925051467;0.0099518472667219811;0;0;0;0;0
9.7683288243190489;0.0098078528040323083;0;0;0;0;0
9.7807567235866308;0.0095694033573221048;0;0;0;0;0
9.7931846228542128;0.0092387953251128509;0;0;0;0;0
9.8056125221217929;0.0088192126434836135;0;0;0;0;0
9.8180404213893748;0.0083146961230254699;0;0;0;0;0
9.8304683206569567;0.0077301045336274146;0;0;0;0;0
9.8428962199245387;0.0070710678118654528;0;0;0;0;0
9.8553241191921188;0.0063439328416365704;0;0;0;0;0
9.8677520184597007;0.0055557023301960606;0;0;0;0;0
9.8801799177272827;0.0047139673682600513;0;0;0;0;0
9.8926078169948646;0.0038268343236508807;0;0;0;0;0
9.9050357162624447;0.0029028467725447792;0;0;0;0;0
9.9174636155300266;0.0019509032201613411;0;0;0;0;0
9.9298915147976086;0.00098017140329570386;0;0;0;0;0
9.9423194140651905;-4.9109668093211799e-18;0;0;0;0;0
9.9547473133327706;-0.00098017140329543086;0;0;0;0;0
9.9671752126003526;-0.0019509032201612112;0;0;0;0;0
9.9796031118679345;-0.0029028467725445168;0;0;0;0;0
9.9920310111355164;-0.0038268343236508903;0;0;0;0;0
10.004458910403097;-0.004713967368259935;0;0;0;0;0
10.016886809670678;-0.0055557023301959505;0;0;0;0;0
10.02931470893826;-0.006343932841636468;0;0;0;0;0
10.041742608205842;-0.0070710678118654606;0;0;0;0;0
10.054170507473422;-0.0077301045336273314;0;0;0;0;0
10.066598406741004;-0.0083146961230253971;0;0;0;0;0
10.079026306008586;-0.0088192126434835511;0;0;0;0;0
10.091454205276168;-0.0092387953251128543;0;0;0;0;0
10.10388210454375;-0.0095694033573221083;0;0;0;0;0
10.11631000381133;-0.0098078528040322823;0;0;0;0;0
10.128737903078912;-0.0099518472667219689;0;0;0;0;0
10.141165802346494;-0.01;0;0;0;0;0
10.153593701614076;-0.0099518472667219637;0;0;0;0;0
10.166021600881656;-0.0098078528040323291;0;0;0;0;0
10.178449500149238;-0.0095694033573220962;0;0;0;0;0
10.19087739941682;-0.0092387953251128925;0;0;0;0;0
10.203305298684402;-0.008819212643483532;0;0;0;0;0
10.215733197951982;-0.0083146961230255306;0;0;0;0;0
10.228161097219564;-0.0077301045336273938;0;0;0;0;0
10.240588996487146;-0.0070710678118655291;0;0;0;0;0
10.253016895754728;-0.0063439328416364342;0;0;0;0;0
10.265444795022308;-0.0055557023301961508;0;0;0;0;0
10.27787269428989;-0.0047139673682600209;0;0;0;0;0
10.290300593557472;-0.0038268343236509805;0;0;0;0;0
10.302728492825054;-0.0029028467725446105;0;0;0;0;0
10.315156392092634;-0.0019509032201614469;0;0;0;0;0
10.327584291360216;-0.00098017140329566981;0;0;0;0;0
10.340012190627798;-1.0289509035384121e-16;0;0;0;0;0
10.35244008989538;0.00098017140329560628;0;0;0;0;0
10.36486798916296;0.0019509032201612448;0;0;0;0;0
10.377295888430542;0.0029028467725445493;0;0;0;0;0
10.389723787698124;0.0038268343236509219;0;0;0;0;0
10.402151686965706;0.0047139673682599645;0;0;0;0;0
10.414579586233286;0.0055557023301959782;0;0;0;0;0
10.427007485500868;0.0063439328416363848;0;0;0;0;0
10.43943538476845;0.007071067811865484;0;0;0;0;0
10.451863284036031;0.0077301045336273522;0;0;0;0;0
10.464291183303612;0.0083146961230254161;0;0;0;0;0
10.476719082571194;0.0088192126434835007;0;0;0;0;0
10.489146981838775;0.0092387953251128682;0;0;0;0;0
