#Time;LinearAccX;LinearAccY;LinearAccZ;AngularAccX;AngularAccY;AngularAccZ
0;0;0;0;0;0;0
0.0062126221909368463;0.00098017140329560606;0;0;0;0;0
0.012425244381873693;0.0019509032201612826;0;0;0;0;0
0.018637866572810538;0.0029028467725446235;0;0;0;0;0
0.024850488763747385;0.0038268343236508981;0;0;0;0;0
0.031063110954684232;0.0047139673682599767;0;0;0;0;0
0.037275733145621076;0.0055557023301960216;0;0;0;0;0
0.043488355336557927;0.006343932841636455;0;0;0;0;0
0.04970097752749477;0.0070710678118654745;0;0;0;0;0
0.055913599718431614;0.0077301045336273704;0;0;0;0;0
0.062126221909368465;0.0083146961230254526;0;0;0;0;0
0.068338844100305315;0.0088192126434835511;0;0;0;0;0
0.074551466291242152;0.0092387953251128682;0;0;0;0;0
0.080764088482179003;0.0095694033573220892;0;0;0;0;0
0.086976710673115853;0.0098078528040323049;0;0;0;0;0
0.09318933286405269;0.0099518472667219689;0;0;0;0;0
0.099401955054989541;0.01;0;0;0;0;0
0.10561457724592639;0.0099518472667219689;0;0;0;0;0
0.11182719943686323;0.0098078528040323049;0;0;0;0;0
0.11803982162780008;0.0095694033573220892;0;0;0;0;0
0.12425244381873693;0.0092387953251128682;0;0;0;0;0
0.13046506600967378;0.0088192126434835511;0;0;0;0;0
0.13667768820061063;0.0083146961230254508;0;0;0;0;0
0.14289031039154745;0.0077301045336273713;0;0;0;0;0
0.1491029325824843;0.0070710678118654762;0;0;0;0;0
0.15531555477342116;0.006343932841636455;0;0;0;0;0
0.16152817696435801;0.0055557023301960251;0;0;0;0;0
0.16774079915529486;0.0047139673682599784;0;0;0;0;0
0.17395342134623171;0.0038268343236508989;0;0;0;0;0
0.18016604353716853;0.0029028467725446278;0;0;0;0;0
0.18637866572810538;0.001950903220161286;0;0;0;0;0
0.19259128791904223;0.00098017140329560823;0;0;0;0;0
0.19880391010997908;1.2246467991473532e-18;0;0;0;0;0
0.20501653230091593;-0.00098017140329560585;0;0;0;0;0
0.21122915449185278;-0.0019509032201612837;0;0;0;0;0
0.21744177668278963;-0.0029028467725446257;0;0;0;0;0
0.22365439887372646;-0.0038268343236508968;0;0;0;0;0
0.22986702106466331;-0.0047139673682599723;0;0;0;0;0
0.23607964325560016;-0.0055557023301960199;0;0;0;0;0
0.24229226544653701;-0.0063439328416364524;0;0;0;0;0
0.24850488763747386;-0.0070710678118654745;0;0;0;0;0
0.25471750982841068;-0.0077301045336273669;0;0;0;0;0
0.26093013201934756;-0.0083146961230254526;0;0;0;0;0
0.26714275421028438;-0.0088192126434835493;0;0;0;0;0
0.27335537640122126;-0.0092387953251128682;0;0;0;0;0
0.27956799859215808;-0.0095694033573220892;0;0;0;0;0
0.28578062078309491;-0.0098078528040323031;0;0;0;0;0
0.29199324297403179;-0.0099518472667219689;0;0;0;0;0
0.29820586516496861;-0.01;0;0;0;0;0
0.30441848735590549;-0.0099518472667219689;0;0;0;0;0
0.31063110954684231;-0.0098078528040323049;0;0;0;0;0
0.31684373173777919;-0.0095694033573220875;0;0;0;0;0
0.32305635392871601;-0.00923879532511287;0;0;0;0;0
0.32926897611965283;-0.0088192126434835545;0;0;0;0;0
0.33548159831058971;-0.0083146961230254543;0;0;0;0;0
0.34169422050152654;-0.0077301045336273747;0;0;0;0;0
0.34790684269246341;-0.0070710678118654771;0;0;0;0;0
0.35411946488340024;-0.0063439328416364594;0;0;0;0;0
0.36033208707433706;-0.0055557023301960294;0;0;0;0;0
0.36654470926527394;-0.0047139673682599793;0;0;0;0;0
0.37275733145621076;-0.0038268343236509041;0;0;0;0;0
0.37896995364714764;-0.0029028467725446252;0;0;0;0;0
0.38518257583808446;-0.0019509032201612873;0;0;0;0;0
0.39139519802902134;-0.00098017140329560498;0;0;0;0;0
0.39760782021995816;-2.4492935982947064e-18;0;0;0;0;0
0.40382044241089499;0.00098017140329560021;0;0;0;0;0
0.41003306460183186;0.0019509032201612826;0;0;0;0;0
0.41624568679276869;0.00290284677254462;0;0;0;0;0
0.42245830898370557;0.0038268343236508994;0;0;0;0;0
0.42867093117464239;0.0047139673682599758;0;0;0;0;0
0.43488355336557927;0.0055557023301960251;0;0;0;0;0
0.44109617555651609;0.0063439328416364559;0;0;0;0;0
0.44730879774745291;0.0070710678118654736;0;0;0;0;0
0.45352141993838979;0.007730104533627366;0;0;0;0;0
0.45973404212932661;0.0083146961230254474;0;0;0;0;0
0.46594666432026349;0.0088192126434835493;0;0;0;0;0
0.47215928651120032;0.0092387953251128647;0;0;0;0;0
0.47837190870213714;0.0095694033573220857;0;0;0;0;0
0.48458453089307402;0.0098078528040323031;0;0;0;0;0
0.49079715308401084;0.0099518472667219689;0;0;0;0;0
0.49700977527494772;0.01;0;0;0;0;0
0.5032223974658846;0.0099518472667219689;0;0;0;0;0
0.50943501965682136;0.0098078528040323066;0;0;0;0;0
0.51564764184775824;0.0095694033573220927;0;0;0;0;0
0.52186026403869512;0.0092387953251128682;0;0;0;0;0
0.52807288622963189;0.0088192126434835597;0;0;0;0;0
0.53428550842056877;0.008314696123025456;0;0;0;0;0
0.54049813061150564;0.0077301045336273756;0;0;0;0;0
0.54671075280244252;0.007071067811865471;0;0;0;0;0
0.55292337499337929;0.0063439328416364672;0;0;0;0;0
0.55913599718431617;0.0055557023301960233;0;0;0;0;0
0.56534861937525305;0.0047139673682599801;0;0;0;0;0
0.57156124156618981;0.003826834323650905;0;0;0;0;0
0.57777386375712669;0.0029028467725446343;0;0;0;0;0
0.58398648594806357;0.0019509032201612798;0;0;0;0;0
0.59019910813900045;0.00098017140329560628;0;0;0;0;0
0.59641173032993722;3.6739403974420592e-18;0;0;0;0;0
0.6026243525208741;-0.00098017140329559891;0;0;0;0;0
0.60883697471181097;-0.0019509032201612899;0;0;0;0;0
0.61504959690274774;-0.0029028467725446105;0;0;0;0;0
0.62126221909368462;-0.0038268343236508985;0;0;0;0;0
0.6274748412846215;-0.0047139673682599741;0;0;0;0;0
0.63368746347555838;-0.005555702330196032;0;0;0;0;0
0.63990008566649514;-0.0063439328416364472;0;0;0;0;0
0.64611270785743202;-0.0070710678118654658;0;0;0;0;0
0.6523253300483689;-0.0077301045336273713;0;0;0;0;0
0.65853795223930567;-0.0083146961230254422;0;0;0;0;0
0.66475057443024255;-0.0088192126434835493;0;0;0;0;0
0.67096319662117943;-0.0092387953251128647;0;0;0;0;0
0.67717581881211619;-0.0095694033573220857;0;0;0;0;0
0.68338844100305307;-0.0098078528040323014;0;0;0;0;0
0.68960106319398995;-0.0099518472667219689;0;0;0;0;0
0.69581368538492683;-0.01;0;0;0;0;0
0.7020263075758636;-0.0099518472667219689;0;0;0;0;0
0.70823892976680047;-0.0098078528040323066;0;0;0;0;0
0.71445155195773735;-0.0095694033573220875;0;0;0;0;0
0.72066417414867412;-0.0092387953251128734;0;0;0;0;0
0.726876796339611;-0.0088192126434835511;0;0;0;0;0
0.73308941853054788;-0.008314696123025456;0;0;0;0;0
0.73930204072148475;-0.0077301045336273643;0;0;0;0;0
0.74551466291242152;-0.0070710678118654849;0;0;0;0;0
0.7517272851033584;-0.0063439328416364541;0;0;0;0;0
0.75793990729429528;-0.0055557023301960242;0;0;0;0;0
0.76415252948523205;-0.0047139673682599819;0;0;0;0;0
0.77036515167616892;-0.0038268343236509063;0;0;0;0;0
0.7765777738671058;-0.0029028467725446356;0;0;0;0;0
0.78279039605804268;-0.0019509032201612808;0;0;0;0;0
0.78900301824897945;-0.00098017140329562514;0;0;0;0;0
0.79521564043991633;-4.8985871965894128e-18;0;0;0;0;0
0.80142826263085321;0.00098017140329559782;0;0;0;0;0
0.80764088482178997;0.0019509032201612715;0;0;0;0;0
0.81385350701272685;0.0029028467725446096;0;0;0;0;0
0.82006612920366373;0.0038268343236508972;0;0;0;0;0
0.82627875139460061;0.0047139673682599732;0;0;0;0;0
0.83249137358553738;0.0055557023301960164;0;0;0;0;0
0.83870399577647425;0.0063439328416364472;0;0;0;0;0
0.84491661796741113;0.0070710678118654779;0;0;0;0;0
0.8511292401583479;0.0077301045336273591;0;0;0;0;0
0.85734186234928478;0.0083146961230254508;0;0;0;0;0
0.86355448454022166;0.0088192126434835476;0;0;0;0;0
0.86976710673115853;0.0092387953251128717;0;0;0;0;0
0.8759797289220953;0.0095694033573220857;0;0;0;0;0
0.88219235111303218;0.0098078528040323049;0;0;0;0;0
0.88840497330396906;0.0099518472667219689;0;0;0;0;0
0.89461759549490583;0.01;0;0;0;0;0
0.9008302176858427;0.0099518472667219689;0;0;0;0;0
0.90704283987677958;0.0098078528040323066;0;0;0;0;0
0.91325546206771646;0.0095694033573220892;0;0;0;0;0
0.91946808425865323;0.0092387953251128752;0;0;0;0;0
0.92568070644959011;0.0088192126434835528;0;0;0;0;0
0.93189332864052699;0.0083146961230254578;0;0;0;0;0
0.93810595083146375;0.0077301045336273765;0;0;0;0;0
0.94431857302240063;0.0070710678118654858;0;0;0;0;0
0.95053119521333751;0.006343932841636455;0;0;0;0;0
0.95674381740427428;0.0055557023301960398;0;0;0;0;0
0.96295643959521116;0.0047139673682599827;0;0;0;0;0
0.96916906178614803;0.0038268343236509072;0;0;0;0;0
0.97538168397708491;0.00290284677254462;0;0;0;0;0
0.98159430616802168;0.0019509032201612995;0;0;0;0;0
0.98780692835895856;0.00098017140329560888;0;0;0;0;0
0.99401955054989544;6.1232339957367663e-18;0;0;0;0;0
1.0002321727408323;-0.0009801714032956143;0;0;0;0;0
1.0064447949317692;-0.0019509032201612876;0;0;0;0;0
1.0126574171227058;-0.0029028467725446083;0;0;0;0;0
1.0188700393136427;-0.0038268343236508794;0;0;0;0;0
1.0250826615045796;-0.0047139673682599567;0;0;0;0;0
1.0312952836955165;-0.0055557023301960008;0;0;0;0;0
1.0375079058864534;-0.0063439328416364594;0;0;0;0;0
1.0437205280773902;-0.0070710678118654771;0;0;0;0;0
1.0499331502683271;-0.0077301045336273687;0;0;0;0;0
1.0561457724592638;-0.00831469612302543;0;0;0;0;0
1.0623583946502007;-0.0088192126434835476;0;0;0;0;0
1.0685710168411375;-0.009238795325112863;0;0;0;0;0
1.0747836390320744;-0.0095694033573220857;0;0;0;0;0
1.0809962612230113;-0.0098078528040323014;0;0;0;0;0
1.0872088834139482;-0.0099518472667219707;0;0;0;0;0
1.093421505604885;-0.01;0;0;0;0;0
1.0996341277958217;-0.0099518472667219724;0;0;0;0;0
1.1058467499867586;-0.0098078528040323118;0;0;0;0;0
1.1120593721776955;-0.0095694033573220892;0;0;0;0;0
1.1182719943686323;-0.0092387953251128682;0;0;0;0;0
1.1244846165595692;-0.0088192126434835528;0;0;0;0;0
1.1306972387505061;-0.0083146961230254578;0;0;0;0;0
1.136909860941443;-0.0077301045336273556;0;0;0;0;0
1.1431224831323796;-0.0070710678118654866;0;0;0;0;0
1.1493351053233165;-0.0063439328416364706;0;0;0;0;0
1.1555477275142534;-0.0055557023301960407;0;0;0;0;0
1.1617603497051903;-0.0047139673682599992;0;0;0;0;0
1.1679729718961271;-0.0038268343236508924;0;0;0;0;0
1.174185594087064;-0.0029028467725446213;0;0;0;0;0
1.1803982162780009;-0.0019509032201612834;0;0;0;0;0
1.1866108384689376;-0.00098017140329564531;0;0;0;0;0
1.1928234606598744;-7.3478807948841184e-18;0;0;0;0;0
1.1990360828508113;0.00098017140329559544;0;0;0;0;0
1.2052487050417482;0.0019509032201612689;0;0;0;0;0
1.2114613272326851;0.0029028467725446074;0;0;0;0;0
1.2176739494236219;0.0038268343236509111;0;0;0;0;0
1.2238865716145588;0.0047139673682599862;0;0;0;0;0
1.2300991938054955;0.0055557023301959999;0;0;0;0;0
1.2363118159964324;0.0063439328416364316;0;0;0;0;0
1.2425244381873692;0.0070710678118654762;0;0;0;0;0
1.2487370603783061;0.0077301045336273678;0;0;0;0;0
1.254949682569243;0.0083146961230254491;0;0;0;0;0
1.2611623047601799;0.0088192126434835458;0;0;0;0;0
1.2673749269511168;0.0092387953251128769;0;0;0;0;0
1.2735875491420534;0.009569403357322084;0;0;0;0;0
1.2798001713329903;0.0098078528040323014;0;0;0;0;0
1.2860127935239272;0.0099518472667219672;0;0;0;0;0
1.292225415714864;0.01;0;0;0;0;0
1.2984380379058009;0.0099518472667219689;0;0;0;0;0
1.3046506600967378;0.0098078528040323049;0;0;0;0;0
1.3108632822876747;0.0095694033573220892;0;0;0;0;0
1.3170759044786113;0.0092387953251128838;0;0;0;0;0
1.3232885266695482;0.0088192126434835545;0;0;0;0;0
1.3295011488604851;0.0083146961230254578;0;0;0;0;0
1.335713771051422;0.0077301045336273791;0;0;0;0;0
1.3419263932423589;0.0070710678118654866;0;0;0;0;0
1.3481390154332957;0.0063439328416364437;0;0;0;0;0
1.3543516376242324;0.0055557023301960416;0;0;0;0;0
1.3605642598151693;0.0047139673682600001;0;0;0;0;0
1.3667768820061061;0.0038268343236509262;0;0;0;0;0
1.372989504197043;0.0029028467725446222;0;0;0;0;0
1.3792021263879799;0.0019509032201612845;0;0;0;0;0
1.3854147485789168;0.00098017140329561127;0;0;0;0;0
1.3916273707698537;8.572527594031472e-18;0;0;0;0;0
1.3978399929607903;-0.00098017140329559414;0;0;0;0;0
1.4040526151517272;-0.0019509032201612678;0;0;0;0;0
1.4102652373426641;-0.0029028467725446057;0;0;0;0;0
1.4164778595336009;-0.0038268343236508772;0;0;0;0;0
1.4226904817245378;-0.0047139673682599541;0;0;0;0;0
1.4289031039154747;-0.0055557023301960277;0;0;0;0;0
1.4351157261064116;-0.0063439328416364576;0;0;0;0;0
1.4413283482973482;-0.0070710678118654502;0;0;0;0;0
1.4475409704882851;-0.0077301045336273444;0;0;0;0;0
1.453753592679222;-0.0083146961230254491;0;0;0;0;0
1.4599662148701589;-0.0088192126434835458;0;0;0;0;0
1.4661788370610958;-0.009238795325112863;0;0;0;0;0
1.4723914592520326;-0.009569403357322084;0;0;0;0;0
1.4786040814429695;-0.0098078528040323083;0;0;0;0;0
1.4848167036339062;-0.0099518472667219672;0;0;0;0;0
1.491029325824843;-0.01;0;0;0;0;0
1.4972419480157799;-0.0099518472667219724;0;0;0;0;0
1.5034545702067168;-0.0098078528040323049;0;0;0;0;0
1.5096671923976537;-0.0095694033573220892;0;0;0;0;0
1.5158798145885906;-0.00923879532511287;0;0;0;0;0
1.5220924367795274;-0.0088192126434835545;0;0;0;0;0
1.5283050589704641;-0.0083146961230254595;0;0;0;0;0
1.534517681161401;-0.0077301045336273791;0;0;0;0;0
1.5407303033523378;-0.0070710678118654884;0;0;0;0;0
1.5469429255432747;-0.0063439328416364715;0;0;0;0;0
1.5531555477342116;-0.0055557023301960433;0;0;0;0;0
1.5593681699251485;-0.0047139673682599706;0;0;0;0;0
1.5655807921160854;-0.0038268343236508946;0;0;0;0;0
1.571793414307022;-0.0029028467725446573;0;0;0;0;0
1.5780060364979589;-0.0019509032201613205;0;0;0;0;0
1.5842186586888958;-0.00098017140329561235;0;0;0;0;0
1.5904312808798327;-9.7971743931788255e-18;0;0;0;0;0
1.5966439030707695;0.00098017140329559284;0;0;0;0;0
1.6028565252617064;0.0019509032201612665;0;0;0;0;0
1.6090691474526433;0.0029028467725446391;0;0;0;0;0
1.6152817696435799;0.0038268343236508764;0;0;0;0;0
1.6214943918345168;0.0047139673682599532;0;0;0;0;0
1.6277070140254537;0.0055557023301959973;0;0;0;0;0
1.6339196362163906;0.0063439328416364576;0;0;0;0;0
1.6401322584073275;0.0070710678118654745;0;0;0;0;0
1.6463448805982643;0.0077301045336273669;0;0;0;0;0
1.6525575027892012;0.0083146961230254474;0;0;0;0;0
1.6587701249801379;0.0088192126434835458;0;0;0;0;0
1.6649827471710748;0.0092387953251128613;0;0;0;0;0
1.6711953693620116;0.009569403357322084;0;0;0;0;0
1.6774079915529485;0.0098078528040322997;0;0;0;0;0
1.6836206137438854;0.0099518472667219655;0;0;0;0;0
1.6898332359348223;0.01;0;0;0;0;0
1.6960458581257591;0.0099518472667219689;0;0;0;0;0
1.7022584803166958;0.0098078528040323118;0;0;0;0;0
1.7084711025076327;0.0095694033573220996;0;0;0;0;0
1.7146837246985696;0.00923879532511287;0;0;0;0;0
1.7208963468895064;0.0088192126434835545;0;0;0;0;0
1.7271089690804433;0.0083146961230254595;0;0;0;0;0
1.7333215912713802;0.0077301045336273799;0;0;0;0;0
1.7395342134623171;0.0070710678118654641;0;0;0;0;0
1.7457468356532537;0.0063439328416364724;0;0;0;0;0
1.7519594578441906;0.0055557023301960442;0;0;0;0;0
1.7581720800351275;0.0047139673682600027;0;0;0;0;0
1.7643847022260644;0.0038268343236508959;0;0;0;0;0
1.7705973244170012;0.0029028467725446244;0;0;0;0;0
1.7768099466079381;0.0019509032201612869;0;0;0;0;0
1.783022568798875;0.00098017140329561365;0;0;0;0;0
1.7892351909898117;1.1021821192326179e-17;0;0;0;0;0
1.7954478131807485;-0.00098017140329559175;0;0;0;0;0
1.8016604353716854;-0.0019509032201612652;0;0;0;0;0
1.8078730575626223;-0.0029028467725446035;0;0;0;0;0
1.8140856797535592;-0.0038268343236508751;0;0;0;0;0
1.820298301944496;-0.0047139673682599836;0;0;0;0;0
1.8265109241354329;-0.0055557023301960259;0;0;0;0;0
1.8327235463263696;-0.0063439328416364281;0;0;0;0;0
1.8389361685173065;-0.0070710678118654485;0;0;0;0;0
1.8451487907082433;-0.007730104533627366;0;0;0;0;0
1.8513614128991802;-0.0083146961230254474;0;0;0;0;0
1.8575740350901171;-0.0088192126434835441;0;0;0;0;0
1.863786657281054;-0.0092387953251128613;0;0;0;0;0
1.8699992794719906;-0.0095694033573220823;0;0;0;0;0
1.8762119016629275;-0.0098078528040322997;0;0;0;0;0
1.8824245238538644;-0.0099518472667219655;0;0;0;0;0
1.8886371460448013;-0.01;0;0;0;0;0
1.8948497682357381;-0.0099518472667219689;0;0;0;0;0
1.901062390426675;-0.0098078528040323049;0;0;0;0;0
1.9072750126176119;-0.0095694033573220892;0;0;0;0;0
1.9134876348085486;-0.0092387953251128838;0;0;0;0;0
1.9197002569994854;-0.0088192126434835545;0;0;0;0;0
1.9259128791904223;-0.0083146961230254595;0;0;0;0;0
1.9321255013813592;-0.0077301045336273808;0;0;0;0;0
1.9383381235722961;-0.0070710678118654901;0;0;0;0;0
1.9445507457632329;-0.0063439328416364741;0;0;0;0;0
1.9507633679541698;-0.0055557023301960155;0;0;0;0;0
1.9569759901451065;-0.0047139673682600036;0;0;0;0;0
1.9631886123360434;-0.0038268343236509297;0;0;0;0;0
1.9694012345269802;-0.0029028467725446599;0;0;0;0;0
1.9756138567179171;-0.001950903220161288;0;0;0;0;0
1.981826478908854;-0.00098017140329561495;0;0;0;0;0
1.9880391010997909;-1.2246467991473533e-17;0;0;0;0;0
1.9942517232907278;0.00098017140329559045;0;0;0;0;0
2.0004643454816646;0.0019509032201612988;0;0;0;0;0
2.0066769676726013;0.0029028467725446022;0;0;0;0;0
2.0128895898635384;0.0038268343236509067;0;0;0;0;0
2.019102212054475;0.0047139673682599506;0;0;0;0;0
2.0253148342454117;0.0055557023301959956;0;0;0;0;0
2.0315274564363488;0.006343932841636455;0;0;0;0;0
2.0377400786272855;0.0070710678118654485;0;0;0;0;0
2.0439527008182226;0.007730104533627366;0;0;0;0;0
2.0501653230091592;0.0083146961230254265;0;0;0;0;0
2.0563779452000963;0.0088192126434835441;0;0;0;0;0
2.062590567391033;0.0092387953251128474;0;0;0;0;0
2.0688031895819696;0.0095694033573220823;0;0;0;0;0
2.0750158117729067;0.0098078528040323066;0;0;0;0;0
2.0812284339638434;0.0099518472667219655;0;0;0;0;0
2.0874410561547805;0.01;0;0;0;0;0
2.0936536783457171;0.0099518472667219724;0;0;0;0;0
2.0998663005366542;0.0098078528040323049;0;0;0;0;0
2.1060789227275909;0.0095694033573221014;0;0;0;0;0
2.1122915449185276;0.0092387953251128994;0;0;0;0;0
2.1185041671094647;0.0088192126434835389;0;0;0;0;0
2.1247167893004013;0.0083146961230254612;0;0;0;0;0
2.1309294114913384;0.0077301045336273591;0;0;0;0;0
2.1371420336822751;0.0070710678118654918;0;0;0;0;0
2.1433546558732122;0.0063439328416364472;0;0;0;0;0
2.1495672780641488;0.0055557023301960459;0;0;0;0;0
2.1557799002550855;0.0047139673682600365;0;0;0;0;0
2.1619925224460226;0.0038268343236509306;0;0;0;0;0
2.1682051446369592;0.0029028467725446265;0;0;0;0;0
2.1744177668278963;0.0019509032201612544;0;0;0;0;0
2.180630389018833;0.00098017140329561604;0;0;0;0;0
2.1868430112097701;-2.2056021997384124e-17;0;0;0;0;0
2.1930556334007067;-0.00098017140329558937;0;0;0;0;0
2.1992682555916434;-0.0019509032201612281;0;0;0;0;0
2.2054808777825805;-0.0029028467725446014;0;0;0;0;0
2.2116934999735172;-0.0038268343236508404;0;0;0;0;0
2.2179061221644543;-0.0047139673682599498;0;0;0;0;0
2.2241187443553909;-0.0055557023301960242;0;0;0;0;0
2.230331366546328;-0.0063439328416364819;0;0;0;0;0
2.2365439887372647;-0.007071067811865471;0;0;0;0;0
2.2427566109282013;-0.0077301045336273426;0;0;0;0;0
2.2489692331191384;-0.0083146961230254456;0;0;0;0;0
2.2551818553100751;-0.0088192126434835268;0;0;0;0;0
2.2613944775010122;-0.0092387953251128613;0;0;0;0;0
2.2676070996919488;-0.0095694033573220719;0;0;0;0;0
2.2738197218828859;-0.0098078528040323135;0;0;0;0;0
2.2800323440738226;-0.0099518472667219689;0;0;0;0;0
2.2862449662647593;-0.01;0;0;0;0;0
2.2924575884556964;-0.0099518472667219689;0;0;0;0;0
2.298670210646633;-0.0098078528040323118;0;0;0;0;0
2.3048828328375701;-0.0095694033573220909;0;0;0;0;0
2.3110954550285068;-0.0092387953251128856;0;0;0;0;0
2.3173080772194439;-0.0088192126434835563;0;0;0;0;0
2.3235206994103805;-0.0083146961230254821;0;0;0;0;0
2.3297333216013172;-0.0077301045336273825;0;0;0;0;0
2.3359459437922543;-0.0070710678118654667;0;0;0;0;0
2.3421585659831909;-0.0063439328416364758;0;0;0;0;0
2.348371188174128;-0.0055557023301960173;0;0;0;0;0
2.3545838103650647;-0.0047139673682600062;0;0;0;0;0
2.3607964325560018;-0.0038268343236508989;0;0;0;0;0
2.3670090547469385;-0.0029028467725446621;0;0;0;0;0
2.3732216769378751;-0.0019509032201613602;0;0;0;0;0
2.3794342991288122;-0.00098017140329558199;0;0;0;0;0
2.3856469213197489;-1.4695761589768237e-17;0;0;0;0;0
2.391859543510686;0.00098017140329562341;0;0;0;0;0
2.3980721657016226;0.0019509032201612618;0;0;0;0;0
2.4042847878925597;0.0029028467725446339;0;0;0;0;0
2.4104974100834964;0.0038268343236508716;0;0;0;0;0
2.416710032274433;0.0047139673682599177;0;0;0;0;0
2.4229226544653701;0.005555702330195993;0;0;0;0;0
2.4291352766563068;0.0063439328416364524;0;0;0;0;0
2.4353478988472439;0.0070710678118654962;0;0;0;0;0
2.4415605210381806;0.0077301045336273634;0;0;0;0;0
2.4477731432291177;0.0083146961230254647;0;0;0;0;0
2.4539857654200543;0.0088192126434835424;0;0;0;0;0
2.460198387610991;0.0092387953251128457;0;0;0;0;0
2.4664110098019281;0.0095694033573220823;0;0;0;0;0
2.4726236319928647;0.0098078528040322927;0;0;0;0;0
2.4788362541838018;0.0099518472667219655;0;0;0;0;0
2.4850488763747385;0.01;0;0;0;0;0
2.4912614985656756;0.0099518472667219655;0;0;0;0;0
2.4974741207566122;0.0098078528040323049;0;0;0;0;0
2.5036867429475489;0.0095694033573221014;0;0;0;0;0
2.509899365138486;0.0092387953251128717;0;0;0;0;0
2.5161119873294227;0.0088192126434835736;0;0;0;0;0
2.5223246095203598;0.008314696123025463;0;0;0;0;0
2.5285372317112964;0.0077301045336274059;0;0;0;0;0
2.5347498539022335;0.0070710678118654424;0;0;0;0;0
2.5409624760931702;0.0063439328416364498;0;0;0;0;0
2.5471750982841068;0.0055557023301960485;0;0;0;0;0
2.5533877204750439;0.0047139673682599758;0;0;0;0;0
2.5596003426659806;0.0038268343236509328;0;0;0;0;0
2.5658129648569177;0.0029028467725446296;0;0;0;0;0
2.5720255870478543;0.0019509032201613266;0;0;0;0;0
2.5782382092387914;0.00098017140329561864;0;0;0;0;0
2.5844508314297281;5.1447545176920603e-17;0;0;0;0;0
2.5906634536206647;-0.00098017140329558698;0;0;0;0;0
2.5968760758116018;-0.0019509032201612954;0;0;0;0;0
2.6030886980025385;-0.0029028467725445988;0;0;0;0;0
2.6093013201934756;-0.0038268343236509033;0;0;0;0;0
2.6155139423844123;-0.004713967368259948;0;0;0;0;0
2.6217265645753494;-0.0055557023301960216;0;0;0;0;0
2.627939186766286;-0.0063439328416364247;0;0;0;0;0
2.6341518089572227;-0.0070710678118654207;0;0;0;0;0
2.6403644311481598;-0.007730104533627386;0;0;0;0;0
2.6465770533390964;-0.0083146961230254439;0;0;0;0;0
2.6527896755300335;-0.008819212643483558;0;0;0;0;0
2.6590022977209702;-0.0092387953251128595;0;0;0;0;0
2.6652149199119068;-0.0095694033573220719;0;0;0;0;0
2.6714275421028439;-0.0098078528040322997;0;0;0;0;0
2.6776401642937806;-0.009951847266721962;0;0;0;0;0
2.6838527864847177;-0.01;0;0;0;0;0
2.6900654086756544;-0.0099518472667219689;0;0;0;0;0
2.6962780308665915;-0.0098078528040322997;0;0;0;0;0
2.7024906530575281;-0.0095694033573220909;0;0;0;0;0
2.7087032752484648;-0.0092387953251128873;0;0;0;0;0
2.7149158974394019;-0.008819212643483558;0;0;0;0;0
2.7211285196303385;-0.0083146961230254821;0;0;0;0;0
2.7273411418212756;-0.0077301045336273834;0;0;0;0;0
2.7335537640122123;-0.0070710678118655196;0;0;0;0;0
2.7397663862031494;-0.0063439328416364776;0;0;0;0;0
2.745979008394086;-0.0055557023301960199;0;0;0;0;0
2.7521916305850227;-0.0047139673682600079;0;0;0;0;0
2.7584042527759598;-0.0038268343236509011;0;0;0;0;0
2.7646168749668965;-0.0029028467725446643;0;0;0;0;0
2.7708294971578336;-0.0019509032201612928;0;0;0;0;0
2.7770421193487702;-0.00098017140329565507;0;0;0;0;0
2.7832547415397073;-1.7145055188062944e-17;0;0;0;0;0
2.789467363730644;0.00098017140329555033;0;0;0;0;0
2.7956799859215806;0.0019509032201612592;0;0;0;0;0
2.8018926081125177;0.0029028467725446317;0;0;0;0;0
2.8081052303034544;0.0038268343236508694;0;0;0;0;0
2.8143178524943915;0.0047139673682599784;0;0;0;0;0
2.8205304746853281;0.0055557023301959904;0;0;0;0;0
2.8267430968762652;0.0063439328416364507;0;0;0;0;0
2.8329557190672019;0.0070710678118654433;0;0;0;0;0
2.8391683412581386;0.0077301045336273166;0;0;0;0;0
2.8453809634490757;0.0083146961230254248;0;0;0;0;0
2.8515935856400123;0.0088192126434835424;0;0;0;0;0
2.8578062078309494;0.0092387953251128734;0;0;0;0;0
2.8640188300218861;0.0095694033573220823;0;0;0;0;0
2.8702314522128232;0.0098078528040323049;0;0;0;0;0
2.8764440744037598;0.0099518472667219655;0;0;0;0;0
2.8826566965946965;0.01;0;0;0;0;0
2.8888693187856336;0.0099518472667219724;0;0;0;0;0
2.8950819409765702;0.0098078528040323205;0;0;0;0;0
2.9012945631675073;0.0095694033573220823;0;0;0;0;0
2.907507185358444;0.0092387953251128734;0;0;0;0;0
2.9137198075493811;0.0088192126434835424;0;0;0;0;0
2.9199324297403177;0.008314696123025463;0;0;0;0;0
2.9261450519312544;0.0077301045336274068;0;0;0;0;0
2.9323576741221915;0.0070710678118654944;0;0;0;0;0
2.9385702963131282;0.0063439328416365062;0;0;0;0;0
2.9447829185040653;0.0055557023301960511;0;0;0;0;0
2.9509955406950019;0.0047139673682599784;0;0;0;0;0
2.957208162885939;0.0038268343236508694;0;0;0;0;0
2.9634207850768757;0.0029028467725446317;0;0;0;0;0
2.9696334072678123;0.001950903220161329;0;0;0;0;0
2.9758460294587494;0.00098017140329562081;0;0;0;0;0
2.9820586516496861;5.3896838775215304e-17;0;0;0;0;0
2.9882712738406232;-0.00098017140329558438;0;0;0;0;0
2.9944838960315598;-0.0019509032201612232;0;0;0;0;0
3.0006965182224969;-0.0029028467725445966;0;0;0;0;0
3.0069091404134336;-0.0038268343236509011;0;0;0;0;0
3.0131217626043703;-0.0047139673682599454;0;0;0;0;0
3.0193343847953074;-0.0055557023301960199;0;0;0;0;0
3.025547006986244;-0.0063439328416364229;0;0;0;0;0
3.0317596291771811;-0.0070710678118654684;0;0;0;0;0
3.0379722513681178;-0.0077301045336273392;0;0;0;0;0
3.0441848735590549;-0.0083146961230254439;0;0;0;0;0
3.0503974957499915;-0.0088192126434835233;0;0;0;0;0
3.0566101179409282;-0.0092387953251128595;0;0;0;0;0
3.0628227401318653;-0.0095694033573220909;0;0;0;0;0
3.0690353623228019;-0.0098078528040322997;0;0;0;0;0
3.075247984513739;-0.0099518472667219689;0;0;0;0;0
3.0814606067046757;-0.01;0;0;0;0;0
3.0876732288956128;-0.0099518472667219689;0;0;0;0;0
3.0938858510865495;-0.0098078528040323135;0;0;0;0;0
3.1000984732774861;-0.0095694033573221135;0;0;0;0;0
3.1063110954684232;-0.0092387953251128873;0;0;0;0;0
3.1125237176593599;-0.008819212643483558;0;0;0;0;0
3.118736339850297;-0.0083146961230254439;0;0;0;0;0
3.1249489620412336;-0.007730104533627386;0;0;0;0;0
3.1311615842321707;-0.0070710678118654701;0;0;0;0;0
3.1373742064231074;-0.0063439328416364793;0;0;0;0;0
3.143586828614044;-0.0055557023301960806;0;0;0;0;0
3.1497994508049811;-0.0047139673682600105;0;0;0;0;0
3.1560120729959178;-0.0038268343236509688;0;0;0;0;0
3.1622246951868549;-0.0029028467725445988;0;0;0;0;0
3.1684373173777916;-0.0019509032201612954;0;0;0;0;0
3.1746499395687287;-0.00098017140329558676;0;0;0;0;0
3.1808625617596653;-1.9594348786357651e-17;0;0;0;0;0
3.187075183950602;0.00098017140329554773;0;0;0;0;0
3.1932878061415391;0.001950903220161257;0;0;0;0;0
3.1995004283324757;0.002902846772544561;0;0;0;0;0
3.2057130505234128;0.0038268343236508673;0;0;0;0;0
3.2119256727143495;0.0047139673682599758;0;0;0;0;0
3.2181382949052866;0.0055557023301960485;0;0;0;0;0
3.2243509170962232;0.0063439328416364498;0;0;0;0;0
3.2305635392871599;0.0070710678118654424;0;0;0;0;0
3.236776161478097;0.00773010453362736;0;0;0;0;0
3.2429887836690336;0.0083146961230254231;0;0;0;0;0
3.2492014058599707;0.0088192126434835406;0;0;0;0;0
3.2554140280509074;0.0092387953251128439;0;0;0;0;0
3.2616266502418445;0.0095694033573220805;0;0;0;0;0
3.2678392724327812;0.0098078528040323049;0;0;0;0;0
3.2740518946237178;0.0099518472667219655;0;0;0;0;0
3.2802645168146549;0.01;0;0;0;0;0
3.2864771390055916;0.0099518472667219724;0;0;0;0;0
3.2926897611965287;0.0098078528040323066;0;0;0;0;0
3.2989023833874653;0.0095694033573221031;0;0;0;0;0
3.3051150055784024;0.0092387953251128734;0;0;0;0;0
3.3113276277693391;0.0088192126434835771;0;0;0;0;0
3.3175402499602757;0.0083146961230254647;0;0;0;0;0
3.3237528721512128;0.0077301045336273634;0;0;0;0;0
3.3299654943421495;0.0070710678118654962;0;0;0;0;0
3.3361781165330866;0.0063439328416364524;0;0;0;0;0
3.3423907387240233;0.005555702330196052;0;0;0;0;0
3.3486033609149604;0.0047139673682599801;0;0;0;0;0
3.354815983105897;0.0038268343236509375;0;0;0;0;0
3.3610286052968337;0.002902846772544702;0;0;0;0;0
3.3672412274877708;0.0019509032201613314;0;0;0;0;0
3.3734538496787074;0.00098017140329562341;0;0;0;0;0
3.3796664718696445;-1.4708141202500005e-17;0;0;0;0;0
3.3858790940605812;-0.00098017140329558199;0;0;0;0;0
3.3920917162515183;-0.0019509032201612906;0;0;0;0;0
3.3983043384424549;-0.002902846772544594;0;0;0;0;0
3.4045169606333916;-0.0038268343236508334;0;0;0;0;0
3.4107295828243287;-0.0047139673682599428;0;0;0;0;0
3.4169422050152654;-0.0055557023301959583;0;0;0;0;0
3.4231548272062025;-0.0063439328416364758;0;0;0;0;0
3.4293674493971391;-0.0070710678118654667;0;0;0;0;0
3.4355800715880762;-0.0077301045336273825;0;0;0;0;0
3.4417926937790129;-0.0083146961230254422;0;0;0;0;0
3.4480053159699495;-0.0088192126434835233;0;0;0;0;0
3.4542179381608866;-0.0092387953251128578;0;0;0;0;0
3.4604305603518233;-0.0095694033573220701;0;0;0;0;0
3.4666431825427604;-0.0098078528040322979;0;0;0;0;0
3.472855804733697;-0.0099518472667219689;0;0;0;0;0
3.4790684269246341;-0.01;0;0;0;0;0
3.4852810491155708;-0.0099518472667219689;0;0;0;0;0
3.4914936713065075;-0.0098078528040323135;0;0;0;0;0
3.4977062934974446;-0.0095694033573220927;0;0;0;0;0
3.5039189156883812;-0.0092387953251128873;0;0;0;0;0
3.5101315378793183;-0.0088192126434835615;0;0;0;0;0
3.516344160070255;-0.0083146961230254855;0;0;0;0;0
3.5225567822611921;-0.0077301045336273869;0;0;0;0;0
3.5287694044521287;-0.007071067811865471;0;0;0;0;0
3.5349820266430654;-0.0063439328416364819;0;0;0;0;0
3.5411946488340025;-0.0055557023301960242;0;0;0;0;0
3.5474072710249391;-0.0047139673682600122;0;0;0;0;0
3.5536198932158762;-0.0038268343236509059;0;0;0;0;0
3.5598325154068129;-0.002902846772544669;0;0;0;0;0
3.56604513759775;-0.0019509032201612978;0;0;0;0;0
3.5722577597886866;-0.00098017140329566006;0;0;0;0;0
3.5784703819796233;-2.2043642384652358e-17;0;0;0;0;0
3.5846830041705604;0.00098017140329561604;0;0;0;0;0
3.5908956263614971;0.0019509032201612544;0;0;0;0;0
3.5971082485524342;0.0029028467725446265;0;0;0;0;0
3.6033208707433708;0.0038268343236508651;0;0;0;0;0
3.6095334929343079;0.0047139673682599741;0;0;0;0;0
3.6157461151252446;0.0055557023301959878;0;0;0;0;0
3.6219587373161812;0.0063439328416363926;0;0;0;0;0
3.6281713595071183;0.0070710678118654407;0;0;0;0;0
3.634383981698055;0.0077301045336273591;0;0;0;0;0
3.6405966038889921;0.0083146961230254612;0;0;0;0;0
3.6468092260799287;0.0088192126434835389;0;0;0;0;0
3.6530218482708658;0.0092387953251128717;0;0;0;0;0
3.6592344704618025;0.0095694033573220788;0;0;0;0;0
3.6654470926527392;0.009807852804032291;0;0;0;0;0
3.6716597148436763;0.0099518472667219655;0;0;0;0;0
3.6778723370346129;0.01;0;0;0;0;0
3.68408495922555;0.0099518472667219655;0;0;0;0;0
3.6902975814164867;0.0098078528040323066;0;0;0;0;0
3.6965102036074238;0.0095694033573220823;0;0;0;0;0
3.7027228257983604;0.0092387953251128734;0;0;0;0;0
3.7089354479892971;0.0088192126434835771;0;0;0;0;0
3.7151480701802342;0.0083146961230254664;0;0;0;0;0
3.7213606923711708;0.0077301045336274103;0;0;0;0;0
3.7275733145621079;0.0070710678118654979;0;0;0;0;0
3.7337859367530446;0.0063439328416365097;0;0;0;0;0
3.7399985589439813;0.0055557023301960537;0;0;0;0;0
3.7462111811349184;0.0047139673682599819;0;0;0;0;0
3.752423803325855;0.0038268343236509397;0;0;0;0;0
3.7586364255167921;0.0029028467725446361;0;0;0;0;0
3.7648490477077288;0.001950903220161334;0;0;0;0;0
3.7710616698986659;0.00098017140329562579;0;0;0;0;0
3.7772742920896025;5.8795425971804725e-17;0;0;0;0;0
3.7834869142805392;-0.0009801714032955087;0;0;0;0;0
3.7896995364714763;-0.001950903220161288;0;0;0;0;0
3.7959121586624129;-0.0029028467725445918;0;0;0;0;0
3.80212478085335;-0.0038268343236508968;0;0;0;0;0
3.8083374030442867;-0.0047139673682599411;0;0;0;0;0
3.8145500252352238;-0.0055557023301960155;0;0;0;0;0
3.8207626474261605;-0.0063439328416364186;0;0;0;0;0
3.8269752696170971;-0.0070710678118654146;0;0;0;0;0
3.8331878918080342;-0.0077301045336273357;0;0;0;0;0
3.8394005139989709;-0.0083146961230254404;0;0;0;0;0
3.845613136189908;-0.0088192126434835545;0;0;0;0;0
3.8518257583808446;-0.0092387953251128561;0;0;0;0;0
3.8580383805717817;-0.0095694033573220892;0;0;0;0;0
3.8642510027627184;-0.0098078528040322979;0;0;0;0;0
3.870463624953655;-0.009951847266721962;0;0;0;0;0
3.8766762471445921;-0.01;0;0;0;0;0
3.8828888693355288;-0.0099518472667219776;0;0;0;0;0
3.8891014915264659;-0.0098078528040323153;0;0;0;0;0
3.8953141137174025;-0.0095694033573220944;0;0;0;0;0
3.9015267359083396;-0.0092387953251128613;0;0;0;0;0
3.9077393580992763;-0.0088192126434835615;0;0;0;0;0
3.913951980290213;-0.0083146961230254873;0;0;0;0;0
3.9201646024811501;-0.0077301045336273886;0;0;0;0;0
3.9263772246720867;-0.0070710678118655239;0;0;0;0;0
3.9325898468630238;-0.0063439328416364828;0;0;0;0;0
3.9388024690539605;-0.0055557023301960849;0;0;0;0;0
3.9450150912448976;-0.0047139673682599524;0;0;0;0;0
3.9512277134358342;-0.003826834323650908;0;0;0;0;0
3.9574403356267709;-0.0029028467725446716;0;0;0;0;0
3.963652957817708;-0.0019509032201612999;0;0;0;0;0
3.9698655800086446;-0.00098017140329566244;0;0;0;0;0
3.9760782021995817;-2.4492935982947065e-17;0;0;0;0;0
3.9822908243905184;0.00098017140329554296;0;0;0;0;0
3.9885034465814555;0.001950903220161252;0;0;0;0;0
3.9947160687723922;0.0029028467725445567;0;0;0;0;0
4.0009286909633293;0.0038268343236509284;0;0;0;0;0
4.0071413131542659;0.0047139673682599715;0;0;0;0;0
4.0133539353452026;0.0055557023301959852;0;0;0;0;0
4.0195665575361392;0.0063439328416363908;0;0;0;0;0
4.0257791797270768;0.0070710678118654892;0;0;0;0;0
4.0319918019180134;0.0077301045336273582;0;0;0;0;0
4.0382044241089501;0.0083146961230254196;0;0;0;0;0
4.0444170462998867;0.0088192126434835059;0;0;0;0;0
4.0506296684908234;0.0092387953251128439;0;0;0;0;0
4.0568422906817609;0.0095694033573220996;0;0;0;0;0
4.0630549128726976;0.0098078528040323049;0;0;0;0;0
4.0692675350636343;0.0099518472667219655;0;0;0;0;0
4.0754801572545709;0.01;0;0;0;0;0
4.0816927794455085;0.0099518472667219655;0;0;0;0;0
4.0879054016364451;0.0098078528040323083;0;0;0;0;0
4.0941180238273818;0.0095694033573221048;0;0;0;0;0
4.1003306460183184;0.0092387953251129029;0;0;0;0;0
4.1065432682092551;0.0088192126434836118;0;0;0;0;0
4.1127558904001926;0.0083146961230254682;0;0;0;0;0
4.1189685125911293;0.007730104533627412;0;0;0;0;0
4.1251811347820659;0.0070710678118655499;0;0;0;0;0
4.1313937569730026;0.0063439328416364576;0;0;0;0;0
4.1376063791639393;0.0055557023301960563;0;0;0;0;0
4.1438190013548768;0.0047139673682599212;0;0;0;0;0
4.1500316235458135;0.0038268343236508764;0;0;0;0;0
4.1562442457367501;0.0029028467725446391;0;0;0;0;0
4.1624568679276868;0.0019509032201613361;0;0;0;0;0
4.1686694901186243;0.00098017140329555771;0;0;0;0;0
4.174882112309561;-9.8095540059105926e-18;0;0;0;0;0
4.1810947345004976;-0.00098017140329557701;0;0;0;0;0
4.1873073566914343;-0.001950903220161216;0;0;0;0;0
4.1935199788823709;-0.0029028467725445211;0;0;0;0;0
4.1997326010733085;-0.0038268343236508946;0;0;0;0;0
4.2059452232642451;-0.0047139673682599385;0;0;0;0;0
4.2121578454551818;-0.0055557023301959539;0;0;0;0;0
4.2183704676461184;-0.0063439328416363613;0;0;0;0;0
4.2245830898370551;-0.0070710678118653626;0;0;0;0;0
4.2307957120279926;-0.0077301045336274242;0;0;0;0;0
4.2370083342189293;-0.0083146961230254786;0;0;0;0;0
4.243220956409866;-0.0088192126434835545;0;0;0;0;0
4.2494335786008026;-0.0092387953251128561;0;0;0;0;0
4.2556462007917393;-0.0095694033573220684;0;0;0;0;0
4.2618588229826768;-0.0098078528040323118;0;0;0;0;0
4.2680714451736135;-0.0099518472667219689;0;0;0;0;0
4.2742840673645501;-0.01;0;0;0;0;0
4.2804966895554868;-0.0099518472667219776;0;0;0;0;0
4.2867093117464243;-0.0098078528040323014;0;0;0;0;0
4.292921933937361;-0.0095694033573220944;0;0;0;0;0
4.2991345561282976;-0.009238795325112889;0;0;0;0;0
4.3053471783192343;-0.0088192126434835962;0;0;0;0;0
4.311559800510171;-0.0083146961230255272;0;0;0;0;0
4.3177724227011085;-0.0077301045336273903;0;0;0;0;0
4.3239850448920452;-0.0070710678118655257;0;0;0;0;0
4.3301976670829818;-0.0063439328416365409;0;0;0;0;0
4.3364102892739185;-0.0055557023301960277;0;0;0;0;0
4.3426229114648551;-0.0047139673682600174;0;0;0;0;0
4.3488355336557927;-0.0038268343236508447;0;0;0;0;0
4.3550481558467293;-0.0029028467725446057;0;0;0;0;0
4.361260778037666;-0.0019509032201613025;0;0;0;0;0
4.3674734002286026;-0.00098017140329566483;0;0;0;0;0
4.3736860224195402;4.4112043994768248e-17;0;0;0;0;0
4.3798986446104768;0.00098017140329561127;0;0;0;0;0
4.3861112668014135;0.0019509032201612498;0;0;0;0;0
4.3923238889923502;0.0029028467725445545;0;0;0;0;0
4.3985365111832868;0.0038268343236507948;0;0;0;0;0
4.4047491333742244;0.0047139673682599697;0;0;0;0;0
4.410961755565161;0.0055557023301959834;0;0;0;0;0
4.4171743777560977;0.0063439328416363882;0;0;0;0;0
4.4233869999470343;0.0070710678118653869;0;0;0;0;0
4.429599622137971;0.0077301045336272654;0;0;0;0;0
4.4358122443289085;0.0083146961230254196;0;0;0;0;0
4.4420248665198452;0.0088192126434835701;0;0;0;0;0
4.4482374887107818;0.0092387953251128682;0;0;0;0;0
4.4544501109017185;0.0095694033573220788;0;0;0;0;0
4.460662733092656;0.009807852804032317;0;0;0;0;0
4.4668753552835927;0.0099518472667219724;0;0;0;0;0
4.4730879774745294;0.01;0;0;0;0;0
4.479300599665466;0.0099518472667219741;0;0;0;0;0
4.4855132218564027;0.0098078528040323222;0;0;0;0;0
4.4917258440473402;0.009569403357322084;0;0;0;0;0
4.4979384662382769;0.0092387953251128769;0;0;0;0;0
4.5041510884292135;0.0088192126434835788;0;0;0;0;0
4.5103637106201502;0.0083146961230255098;0;0;0;0;0
4.5165763328110868;0.0077301045336274589;0;0;0;0;0
4.5227889550020244;0.0070710678118655014;0;0;0;0;0
4.529001577192961;0.006343932841636514;0;0;0;0;0
4.5352141993838977;0.005555702330196117;0;0;0;0;0
4.5414268215748343;0.004713967368260112;0;0;0;0;0
4.5476394437657719;0.0038268343236508131;0;0;0;0;0
4.5538520659567086;0.0029028467725445727;0;0;0;0;0
4.5600646881476452;0.0019509032201612689;0;0;0;0;0
4.5662773103385819;0.00098017140329563078;0;0;0;0;0
4.5724899325295185;6.3694013168394139e-17;0;0;0;0;0
4.5787025547204561;-0.00098017140329564531;0;0;0;0;0
4.5849151769113927;-0.0019509032201612834;0;0;0;0;0
4.5911277991023294;-0.0029028467725445875;0;0;0;0;0
4.597340421293266;-0.0038268343236508265;0;0;0;0;0
4.6035530434842027;-0.0047139673682598743;0;0;0;0;0
4.6097656656751402;-0.0055557023301960121;0;0;0;0;0
4.6159782878660769;-0.0063439328416364151;0;0;0;0;0
4.6221909100570135;-0.0070710678118654112;0;0;0;0;0
4.6284035322479502;-0.007730104533627288;0;0;0;0;0
4.6346161544388877;-0.0083146961230254387;0;0;0;0;0
4.6408287766298244;-0.0088192126434835198;0;0;0;0;0
4.6470413988207611;-0.0092387953251128283;0;0;0;0;0
4.6532540210116977;-0.0095694033573220892;0;0;0;0;0
4.6594666432026344;-0.0098078528040322962;0;0;0;0;0
4.6656792653935719;-0.0099518472667219759;0;0;0;0;0
4.6718918875845086;-0.01;0;0;0;0;0
4.6781045097754452;-0.0099518472667219707;0;0;0;0;0
4.6843171319663819;-0.0098078528040323153;0;0;0;0;0
4.6905297541573185;-0.0095694033573221152;0;0;0;0;0
4.6967423763482561;-0.009238795325112863;0;0;0;0;0
4.7029549985391927;-0.0088192126434835632;0;0;0;0;0
4.7091676207301294;-0.008314696123025489;0;0;0;0;0
4.7153802429210661;-0.0077301045336274363;0;0;0;0;0
4.7215928651120036;-0.0070710678118654771;0;0;0;0;0
4.7278054873029403;-0.0063439328416364871;0;0;0;0;0
4.7340181094938769;-0.0055557023301960893;0;0;0;0;0
4.7402307316848136;-0.0047139673682600816;0;0;0;0;0
4.7464433538757502;-0.0038268343236510438;0;0;0;0;0
4.7526559760666878;-0.002902846772544676;0;0;0;0;0
4.7588685982576244;-0.0019509032201612353;0;0;0;0;0
4.7650812204485611;-0.00098017140329559652;0;0;0;0;0
4.7712938426394977;-2.9391523179536474e-17;0;0;0;0;0
4.7775064648304344;0.00098017140329553797;0;0;0;0;0
4.7837190870213719;0.0019509032201613168;0;0;0;0;0
4.7899317092123086;0.00290284677254462;0;0;0;0;0
4.7961443314032453;0.0038268343236508577;0;0;0;0;0
4.8023569535941819;0.0047139673682599047;0;0;0;0;0
4.8085695757851195;0.0055557023301960398;0;0;0;0;0
4.8147821979760561;0.006343932841636442;0;0;0;0;0
4.8209948201669928;0.0070710678118654363;0;0;0;0;0
4.8272074423579294;0.0077301045336273088;0;0;0;0;0
4.8334200645488661;0.008314696123025378;0;0;0;0;0
4.8396326867398036;0.0088192126434835354;0;0;0;0;0
4.8458453089307403;0.0092387953251128405;0;0;0;0;0
4.8520579311216769;0.009569403357322058;0;0;0;0;0
4.8582705533126136;0.0098078528040323031;0;0;0;0;0
4.8644831755035502;0.0099518472667219655;0;0;0;0;0
4.8706957976944878;0.01;0;0;0;0;0
4.8769084198854245;0.0099518472667219672;0;0;0;0;0
4.8831210420763611;0.0098078528040323083;0;0;0;0;0
4.8893336642672978;0.0095694033573221048;0;0;0;0;0
4.8955462864582353;0.0092387953251128509;0;0;0;0;0
4.901758908649172;0.0088192126434835476;0;0;0;0;0
4.9079715308401086;0.0083146961230254699;0;0;0;0;0
4.9141841530310453;0.0077301045336274146;0;0;0;0;0
4.9203967752219819;0.0070710678118655534;0;0;0;0;0
4.9266093974129195;0.0063439328416364602;0;0;0;0;0
4.9328220196038561;0.0055557023301960606;0;0;0;0;0
4.9390346417947928;0.0047139673682600513;0;0;0;0;0
4.9452472639857294;0.0038268343236510121;0;0;0;0;0
4.9514598861766661;0.0029028467725447792;0;0;0;0;0
4.9576725083676036;0.0019509032201613411;0;0;0;0;0
4.9638851305585403;0.00098017140329556248;0;0;0;0;0
4.970097752749477;-4.9109668093211799e-18;0;0;0;0;0
4.9763103749404136;-0.00098017140329557224;0;0;0;0;0
4.9825229971313512;-0.0019509032201613504;0;0;0;0;0
4.9887356193222878;-0.002902846772544653;0;0;0;0;0
4.9949482415132245;-0.0038268343236508903;0;0;0;0;0
5.0011608637041611;-0.004713967368259935;0;0;0;0;0
5.0073734858950978;-0.0055557023301959505;0;0;0;0;0
5.0135861080860353;-0.006343932841636468;0;0;0;0;0
5.019798730276972;-0.0070710678118654606;0;0;0;0;0
5.0260113524679086;-0.0077301045336273314;0;0;0;0;0
5.0322239746588453;-0.0083146961230253971;0;0;0;0;0
5.038436596849782;-0.0088192126434834851;0;0;0;0;0
5.0446492190407195;-0.0092387953251128543;0;0;0;0;0
5.0508618412316562;-0.0095694033573220667;0;0;0;0;0
5.0570744634225928;-0.0098078528040322823;0;0;0;0;0
5.0632870856135295;-0.0099518472667219533;0;0;0;0;0
5.069499707804467;-0.01;0;0;0;0;0
5.0757123299954037;-0.0099518472667219637;0;0;0;0;0
5.0819249521863403;-0.0098078528040323014;0;0;0;0;0
5.088137574377277;-0.0095694033573220962;0;0;0;0;0
5.0943501965682136;-0.0092387953251128925;0;0;0;0;0
5.1005628187591512;-0.008819212643483532;0;0;0;0;0
5.1067754409500878;-0.0083146961230254508;0;0;0;0;0
5.1129880631410245;-0.0077301045336273938;0;0;0;0;0
5.1192006853319612;-0.0070710678118655291;0;0;0;0;0
5.1254133075228978;-0.0063439328416365435;0;0;0;0;0
5.1316259297138354;-0.005555702330196032;0;0;0;0;0
5.137838551904772;-0.0047139673682600209;0;0;0;0;0
5.1440511740957087;-0.0038268343236509805;0;0;0;0;0
5.1502637962866453;-0.0029028467725447466;0;0;0;0;0
5.1564764184775829;-0.0019509032201613073;0;0;0;0;0
5.1626890406685195;-0.00098017140329566981;0;0;0;0;0
5.1689016628594562;-1.0289509035384121e-16;0;0;0;0;0
5.1751142850503928;0.00098017140329560628;0;0;0;0;0
5.1813269072413295;0.0019509032201612448;0;0;0;0;0
5.187539529432267;0.0029028467725446855;0;0;0;0;0
5.1937521516232037;0.0038268343236509219;0;0;0;0;0
5.1999647738141404;0.0047139673682599645;0;0;0;0;0
5.206177396005077;0.0055557023301959782;0;0;0;0;0
5.2123900181960137;0.0063439328416363848;0;0;0;0;0
5.2186026403869512;0.007071067811865484;0;0;0;0;0
5.2248152625778879;0.0077301045336273522;0;0;0;0;0
5.2310278847688245;0.0083146961230254161;0;0;0;0;0
5.2372405069597612;0.0088192126434835007;0;0;0;0;0
5.2434531291506987;0.0092387953251128682;0;0;0;0;0
5.2496657513416354;0.0095694033573220771;0;0;0;0;0
5.255878373532572;0.0098078528040322892;0;0;0;0;0
5.2620909957235087;0.0099518472667219568;0;0;0;0;0
5.2683036179144453;0.01;0;0;0;0;0
5.2745162401053829;0.0099518472667219741;0;0;0;0;0
5.2807288622963195;0.0098078528040322945;0;0;0;0;0
5.2869414844872562;0.0095694033573220857;0;0;0;0;0
5.2931541066781929;0.0092387953251128786;0;0;0;0;0
5.2993667288691295;0.0088192126434835823;0;0;0;0;0
5.3055793510600671;0.0083146961230254317;0;0;0;0;0
5.3117919732510037;0.0077301045336273713;0;0;0;0;0
5.3180045954419404;0.0070710678118655048;0;0;0;0;0
5.324217217632877;0.0063439328416365175;0;0;0;0;0
5.3304298398238137;0.0055557023301961222;0;0;0;0;0
5.3366424620147512;0.0047139673682599905;0;0;0;0;0
5.3428550842056879;0.0038268343236509488;0;0;0;0;0
5.3490677063966245;0.0029028467725447137;0;0;0;0;0
5.3552803285875612;0.0019509032201614129;0;0;0;0;0
5.3614929507784987;0.00098017140329563555;0;0;0;0;0
5.3677055729694354;6.8592600364983554e-17;0;0;0;0;0
5.3739181951603721;-0.00098017140329549916;0;0;0;0;0
5.3801308173513087;-0.0019509032201612787;0;0;0;0;0
5.3863434395422454;-0.0029028467725445823;0;0;0;0;0
5.3925560617331829;-0.0038268343236509536;0;0;0;0;0
5.3987686839241196;-0.0047139673682599957;0;0;0;0;0
5.4049813061150562;-0.0055557023301960077;0;0;0;0;0
5.4111939283059929;-0.0063439328416364116;0;0;0;0;0
5.4174065504969295;-0.0070710678118654086;0;0;0;0;0
5.4236191726878671;-0.0077301045336273747;0;0;0;0;0
5.4298317948788037;-0.0083146961230254352;0;0;0;0;0
5.4360444170697404;-0.0088192126434835181;0;0;0;0;0
5.4422570392606771;-0.0092387953251128266;0;0;0;0;0
5.4484696614516146;-0.0095694033573220875;0;0;0;0;0
5.4546822836425513;-0.0098078528040322962;0;0;0;0;0
5.4608949058334879;-0.0099518472667219603;0;0;0;0;0
5.4671075280244246;-0.01;0;0;0;0;0
5.4733201502153612;-0.0099518472667219846;0;0;0;0;0
5.4795327724062988;-0.0098078528040323153;0;0;0;0;0
5.4857453945972354;-0.0095694033573220771;0;0;0;0;0
5.4919580167881721;-0.0092387953251128647;0;0;0;0;0
5.4981706389791087;-0.0088192126434835667;0;0;0;0;0
5.5043832611700454;-0.0083146961230254925;0;0;0;0;0
5.5105958833609829;-0.0077301045336273504;0;0;0;0;0
5.5168085055519196;-0.0070710678118654805;0;0;0;0;0
5.5230211277428563;-0.0063439328416364906;0;0;0;0;0
5.5292337499337929;-0.0055557023301960927;0;0;0;0;0
5.5354463721247305;-0.0047139673682599602;0;0;0;0;0
5.5416589943156671;-0.0038268343236509167;0;0;0;0;0
5.5478716165066038;-0.0029028467725446812;0;0;0;0;0
5.5540842386975404;-0.0019509032201613793;0;0;0;0;0
5.5602968608884771;-0.00098017140329574289;0;0;0;0;0
5.5665094830794146;-3.4290110376125888e-17;0;0;0;0;0
5.5727221052703513;0.0009801714032955332;0;0;0;0;0
5.5789347274612879;0.0019509032201611729;0;0;0;0;0
5.5851473496522246;0.0029028467725444791;0;0;0;0;0
5.5913599718431612;0.0038268343236508534;0;0;0;0;0
5.5975725940340988;0.0047139673682600252;0;0;0;0;0
5.6037852162250354;0.0055557023301960363;0;0;0;0;0
5.6099978384159721;0.0063439328416364385;0;0;0;0;0
5.6162104606069088;0.0070710678118654328;0;0;0;0;0
5.6224230827978463;0.0077301045336273964;0;0;0;0;0
5.628635704988783;0.0083146961230254543;0;0;0;0;0
5.6348483271797196;0.0088192126434835337;0;0;0;0;0
5.6410609493706563;0.0092387953251128387;0;0;0;0;0
5.6472735715615929;0.0095694033573220563;0;0;0;0;0
5.6534861937525305;0.0098078528040323031;0;0;0;0;0
5.6596988159434671;0.0099518472667219637;0;0;0;0;0
5.6659114381344038;0.01;0;0;0;0;0
5.6721240603253404;0.0099518472667219811;0;0;0;0;0
5.6783366825162771;0.0098078528040323361;0;0;0;0;0
5.6845493047072146;0.0095694033573221066;0;0;0;0;0
5.6907619268981513;0.0092387953251129064;0;0;0;0;0
5.696974549089088;0.0088192126434835493;0;0;0;0;0
5.7031871712800246;0.0083146961230254734;0;0;0;0;0
5.7093997934709622;0.0077301045336273279;0;0;0;0;0
5.7156124156618988;0.0070710678118654563;0;0;0;0;0
5.7218250378528355;0.0063439328416364637;0;0;0;0;0
5.7280376600437721;0.0055557023301960641;0;0;0;0;0
5.7342502822347088;0.0047139673682600556;0;0;0;0;0
5.7404629044256463;0.0038268343236508851;0;0;0;0;0
5.746675526616583;0.0029028467725446478;0;0;0;0;0
5.7528881488075196;0.0019509032201613459;0;0;0;0;0
5.7591007709984563;0.00098017140329570884;0;0;0;0;0
5.765313393189393;1.4209616753928826e-16;0;0;0;0;0
5.7715260153803305;-0.00098017140329556725;0;0;0;0;0
5.7777386375712672;-0.0019509032201612065;0;0;0;0;0
5.7839512597622038;-0.0029028467725445125;0;0;0;0;0
5.7901638819531405;-0.0038268343236507541;0;0;0;0;0
5.796376504144078;-0.0047139673682599307;0;0;0;0;0
5.8025891263350147;-0.005555702330196065;0;0;0;0;0
5.8088017485259513;-0.0063439328416364637;0;0;0;0;0
5.815014370716888;-0.0070710678118654563;0;0;0;0;0
5.8212269929078246;-0.0077301045336273279;0;0;0;0;0
5.8274396150987622;-0.0083146961230254734;0;0;0;0;0
5.8336522372896988;-0.0088192126434835493;0;0;0;0;0
5.8398648594806355;-0.0092387953251128526;0;0;0;0;0
5.8460774816715722;-0.0095694033573220667;0;0;0;0;0
5.8522901038625088;-0.0098078528040322806;0;0;0;0;0
5.8585027260534464;-0.0099518472667219672;0;0;0;0;0
5.864715348244383;-0.01;0;0;0;0;0
5.8709279704353197;-0.0099518472667219776;0;0;0;0;0
5.8771405926262563;-0.0098078528040323309;0;0;0;0;0
5.8833532148171939;-0.0095694033573220979;0;0;0;0;0
5.8895658370081305;-0.0092387953251128925;0;0;0;0;0
5.8957784591990672;-0.0088192126434836014;0;0;0;0;0
5.9019910813900038;-0.0083146961230254543;0;0;0;0;0
5.9082037035809405;-0.0077301045336273964;0;0;0;0;0
5.914416325771878;-0.0070710678118654328;0;0;0;0;0
5.9206289479628147;-0.0063439328416364385;0;0;0;0;0
5.9268415701537513;-0.0055557023301960363;0;0;0;0;0
5.933054192344688;-0.0047139673682600252;0;0;0;0;0
5.9392668145356247;-0.0038268343236509852;0;0;0;0;0
5.9454794367265622;-0.0029028467725446152;0;0;0;0;0
5.9516920589174989;-0.0019509032201613123;0;0;0;0;0
5.9579046811084355;-0.00098017140329567458;0;0;0;0;0
5.9641173032993722;-1.0779367755043061e-16;0;0;0;0;0
5.9703299254903097;0.00098017140329560151;0;0;0;0;0
5.9765425476812464;0.0019509032201612401;0;0;0;0;0
5.982755169872183;0.002902846772544545;0;0;0;0;0
5.9889677920631197;0.0038268343236507857;0;0;0;0;0
5.9951804142540563;0.0047139673682598353;0;0;0;0;0
6.0013930364449939;0.0055557023301959756;0;0;0;0;0
6.0076056586359305;0.0063439328416364906;0;0;0;0;0
6.0138182808268672;0.0070710678118654805;0;0;0;0;0
6.0200309030178039;0.0077301045336273504;0;0;0;0;0
6.0262435252087405;0.0083146961230254144;0;0;0;0;0
6.0324561473996781;0.0088192126434835667;0;0;0;0;0
6.0386687695906147;0.0092387953251128647;0;0;0;0;0
6.0448813917815514;0.0095694033573220771;0;0;0;0;0
6.051094013972488;0.0098078528040322875;0;0;0;0;0
6.0573066361634256;0.0099518472667219707;0;0;0;0;0
6.0635192583543622;0.01;0;0;0;0;0
6.0697318805452989;0.0099518472667219759;0;0;0;0;0
6.0759445027362355;0.0098078528040323239;0;0;0;0;0
6.0821571249271722;0.0095694033573221291;0;0;0;0;0
6.0883697471181097;0.0092387953251128804;0;0;0;0;0
6.0945823693090464;0.008819212643483584;0;0;0;0;0
6.1007949914999831;0.0083146961230255133;0;0;0;0;0
6.1070076136909197;0.0077301045336274641;0;0;0;0;0
6.1132202358818564;0.0070710678118655083;0;0;0;0;0
6.1194328580727939;0.0063439328416364116;0;0;0;0;0
6.1256454802637306;0.0055557023301960077;0;0;0;0;0
6.1318581024546672;0.0047139673682599957;0;0;0;0;0
6.1380707246456039;0.0038268343236509536;0;0;0;0;0
6.1442833468365414;0.0029028467725445823;0;0;0;0;0
6.1504959690274781;0.0019509032201612787;0;0;0;0;0
6.1567085912184147;0.00098017140329564054;0;0;0;0;0
6.1629212134093514;7.3491187561572956e-17;0;0;0;0;0
6.1691338356002881;-0.00098017140329549417;0;0;0;0;0
6.1753464577912256;-0.0019509032201612737;0;0;0;0;0
6.1815590799821623;-0.0029028467725445779;0;0;0;0;0
6.1877717021730989;-0.0038268343236508174;0;0;0;0;0
6.1939843243640356;-0.0047139673682598656;0;0;0;0;0
6.2001969465549722;-0.0055557023301958854;0;0;0;0;0
6.2064095687459098;-0.0063439328416364073;0;0;0;0;0
6.2126221909368464;-0.0070710678118654051;0;0;0;0;0
6.2188348131277831;-0.0077301045336273713;0;0;0;0;0
6.2250474353187197;-0.0083146961230254317;0;0;0;0;0
6.2312600575096573;-0.0088192126434835823;0;0;0;0;0
6.2374726797005939;-0.0092387953251128786;0;0;0;0;0
6.2436853018915306;-0.0095694033573220857;0;0;0;0;0
6.2498979240824672;-0.0098078528040322945;0;0;0;0;0
6.2561105462734039;-0.0099518472667219603;0;0;0;0;0
6.2623231684643414;-0.01;0;0;0;0;0
6.2685357906552781;-0.0099518472667219724;0;0;0;0;0
6.2747484128462148;-0.009807852804032317;0;0;0;0;0
6.2809610350371514;-0.0095694033573221187;0;0;0;0;0
6.2871736572280881;-0.009238795325112922;0;0;0;0;0
6.2933862794190256;-0.0088192126434835684;0;0;0;0;0
6.2995989016099623;-0.0083146961230254942;0;0;0;0;0
6.3058115238008989;-0.0077301045336274432;0;0;0;0;0
6.3120241459918356;-0.0070710678118655846;0;0;0;0;0
6.3182367681827731;-0.0063439328416364949;0;0;0;0;0
6.3244493903737098;-0.0055557023301959782;0;0;0;0;0
6.3306620125646464;-0.0047139673682599645;0;0;0;0;0
6.3368746347555831;-0.0038268343236509219;0;0;0;0;0
6.3430872569465198;-0.0029028467725446855;0;0;0;0;0
6.3492998791374573;-0.0019509032201612448;0;0;0;0;0
6.355512501328394;-0.00098017140329560628;0;0;0;0;0
6.3617251235193306;-3.9188697572715302e-17;0;0;0;0;0
6.3679377457102673;0.00098017140329552843;0;0;0;0;0
6.3741503679012039;0.0019509032201611679;0;0;0;0;0
6.3803629900921415;0.0029028467725446105;0;0;0;0;0
6.3865756122830781;0.0038268343236508491;0;0;0;0;0
6.3927882344740148;0.004713967368259896;0;0;0;0;0
6.3990008566649514;0.0055557023301959141;0;0;0;0;0
6.4052134788558881;0.006343932841636324;0;0;0;0;0
6.4114261010468256;0.0070710678118654285;0;0;0;0;0
6.4176387232377623;0.0077301045336273036;0;0;0;0;0
6.423851345428699;0.0083146961230254508;0;0;0;0;0
6.4300639676196356;0.008819212643483532;0;0;0;0;0
6.4362765898105732;0.0092387953251128925;0;0;0;0;0
6.4424892120015098;0.0095694033573220962;0;0;0;0;0
6.4487018341924465;0.0098078528040323014;0;0;0;0;0
6.4549144563833831;0.0099518472667219637;0;0;0;0;0
6.4611270785743198;0.01;0;0;0;0;0
6.4673397007652573;0.0099518472667219689;0;0;0;0;0
6.473552322956194;0.0098078528040323101;0;0;0;0;0
6.4797649451471306;0.0095694033573221083;0;0;0;0;0
6.4859775673380673;0.0092387953251129081;0;0;0;0;0
6.492190189529004;0.0088192126434836187;0;0;0;0;0
6.4984028117199415;0.0083146961230254751;0;0;0;0;0
6.5046154339108782;0.0077301045336274216;0;0;0;0;0
6.5108280561018148;0.0070710678118655603;0;0;0;0;0
6.5170406782927515;0.0063439328416365782;0;0;0;0;0
6.523253300483689;0.0055557023301960684;0;0;0;0;0
6.5294659226746257;0.004713967368259935;0;0;0;0;0
6.5356785448655623;0.0038268343236508903;0;0;0;0;0
6.541891167056499;0.002902846772544653;0;0;0;0;0
6.5481037892474356;0.0019509032201613504;0;0;0;0;0
6.5543164114383732;0.00098017140329557224;0;0;0;0;0
6.5605290336293098;4.8862075838576457e-18;0;0;0;0;0
6.5667416558202465;-0.00098017140329556248;0;0;0;0;0
6.5729542780111831;-0.0019509032201612017;0;0;0;0;0
6.5791669002021198;-0.0029028467725445073;0;0;0;0;0
6.5853795223930573;-0.0038268343236508807;0;0;0;0;0
6.591592144583994;-0.0047139673682599264;0;0;0;0;0
6.5978047667749307;-0.0055557023301959418;0;0;0;0;0
6.6040173889658673;-0.0063439328416363509;0;0;0;0;0
6.6102300111568049;-0.0070710678118654528;0;0;0;0;0
6.6164426333477415;-0.0077301045336273244;0;0;0;0;0
6.6226552555386782;-0.0083146961230253918;0;0;0;0;0
6.6288678777296148;-0.0088192126434834799;0;0;0;0;0
6.6350804999205515;-0.0092387953251128509;0;0;0;0;0
6.641293122111489;-0.0095694033573221066;0;0;0;0;0
6.6475057443024257;-0.0098078528040323083;0;0;0;0;0
6.6537183664933623;-0.0099518472667219672;0;0;0;0;0
6.659930988684299;-0.01;0;0;0;0;0
6.6661436108752357;-0.0099518472667219776;0;0;0;0;0
6.6723562330661732;-0.0098078528040323031;0;0;0;0;0
6.6785688552571099;-0.0095694033573220979;0;0;0;0;0
6.6847814774480465;-0.009238795325112896;0;0;0;0;0
6.6909940996389832;-0.0088192126434836031;0;0;0;0;0
6.6972067218299207;-0.0083146961230254578;0;0;0;0;0
6.7034193440208574;-0.007730104533627399;0;0;0;0;0
6.709631966211794;-0.0070710678118655361;0;0;0;0;0
6.7158445884027307;-0.0063439328416365513;0;0;0;0;0
6.7220572105936673;-0.0055557023301961586;0;0;0;0;0
6.7282698327846049;-0.0047139673682600296;0;0;0;0;0
6.7344824549755415;-0.0038268343236509896;0;0;0;0;0
6.7406950771664782;-0.00290284677254462;0;0;0;0;0
6.7469076993574149;-0.0019509032201613168;0;0;0;0;0
6.7531203215483515;-0.00098017140329567957;0;0;0;0;0
6.7593329437392891;2.9416282405000011e-17;0;0;0;0;0
6.7655455659302257;0.00098017140329559652;0;0;0;0;0
6.7717581881211624;0.0019509032201612353;0;0;0;0;0
6.777970810312099;0.0029028467725445402;0;0;0;0;0
6.7841834325030366;0.0038268343236509124;0;0;0;0;0
6.7903960546939732;0.0047139673682599567;0;0;0;0;0
6.7966086768849099;0.0055557023301959704;0;0;0;0;0
6.8028212990758465;0.006343932841636377;0;0;0;0;0
6.8090339212667832;0.0070710678118653773;0;0;0;0;0
6.8152465434577207;0.007730104533627347;0;0;0;0;0
6.8214591656486574;0.0083146961230254109;0;0;0;0;0
6.8276717878395941;0.0088192126434834955;0;0;0;0;0
6.8338844100305307;0.0092387953251128092;0;0;0;0;0
6.8400970322214674;0.0095694033573220337;0;0;0;0;0
6.8463096544124049;0.0098078528040323153;0;0;0;0;0
6.8525222766033416;0.0099518472667219707;0;0;0;0;0
6.8587348987942782;0.01;0;0;0;0;0
6.8649475209852149;0.0099518472667219759;0;0;0;0;0
6.8711601431761524;0.0098078528040322962;0;0;0;0;0
6.8773727653670891;0.0095694033573220892;0;0;0;0;0
6.8835853875580257;0.0092387953251128821;0;0;0;0;0
6.8897980097489624;0.0088192126434835857;0;0;0;0;0
6.896010631939899;0.0083146961230255167;0;0;0;0;0
6.9022232541308366;0.0077301045336273782;0;0;0;0;0
6.9084358763217733;0.0070710678118655118;0;0;0;0;0
6.9146484985127099;0.0063439328416365253;0;0;0;0;0
6.9208611207036466;0.0055557023301961292;0;0;0;0;0
6.9270737428945832;0.004713967368260125;0;0;0;0;0
6.9332863650855208;0.0038268343236509579;0;0;0;0;0
6.9394989872764574;0.0029028467725447232;0;0;0;0;0
6.9457116094673941;0.0019509032201612834;0;0;0;0;0
6.9519242316583307;0.00098017140329564531;0;0;0;0;0
6.9581368538492683;-6.371877239385767e-17;0;0;0;0;0
6.9643494760402049;-0.00098017140329563078;0;0;0;0;0
6.9705620982311416;-0.0019509032201612689;0;0;0;0;0
6.9767747204220782;-0.0029028467725445727;0;0;0;0;0
6.9829873426130149;-0.0038268343236508131;0;0;0;0;0
6.9891999648039524;-0.0047139673682599862;0;0;0;0;0
6.9954125869948891;-0.0055557023301959999;0;0;0;0;0
7.0016252091858258;-0.0063439328416364038;0;0;0;0;0
7.0078378313767624;-0.0070710678118654008;0;0;0;0;0
7.0140504535676991;-0.0077301045336272776;0;0;0;0;0
7.0202630757586366;-0.00831469612302543;0;0;0;0;0
7.0264756979495733;-0.0088192126434835129;0;0;0;0;0
7.0326883201405099;-0.0092387953251128214;0;0;0;0;0
7.0389009423314466;-0.0095694033573220424;0;0;0;0;0
7.0451135645223841;-0.0098078528040322945;0;0;0;0;0
7.0513261867133208;-0.0099518472667219741;0;0;0;0;0
7.0575388089042574;-0.01;0;0;0;0;0
7.0637514310951941;-0.0099518472667219724;0;0;0;0;0
7.0699640532861308;-0.009807852804032317;0;0;0;0;0
7.0761766754770683;-0.0095694033573220788;0;0;0;0;0
7.082389297668005;-0.0092387953251128682;0;0;0;0;0
7.0886019198589416;-0.0088192126434835701;0;0;0;0;0
7.0948145420498783;-0.0083146961230254977;0;0;0;0;0
7.1010271642408149;-0.0077301045336274458;0;0;0;0;0
7.1072397864317525;-0.0070710678118654866;0;0;0;0;0
7.1134524086226891;-0.0063439328416364984;0;0;0;0;0
7.1196650308136258;-0.0055557023301961014;0;0;0;0;0
7.1258776530045624;-0.0047139673682600946;0;0;0;0;0
7.1320902751955;-0.0038268343236509262;0;0;0;0;0
7.1383028973864366;-0.0029028467725446898;0;0;0;0;0
7.1445155195773733;-0.001950903220161389;0;0;0;0;0
7.15072814176831;-0.00098017140329575265;0;0;0;0;0
7.1569407639592466;-4.4087284769304716e-17;0;0;0;0;0
7.1631533861501842;0.00098017140329566483;0;0;0;0;0
7.1693660083411208;0.0019509032201613025;0;0;0;0;0
7.1755786305320575;0.0029028467725446057;0;0;0;0;0
7.1817912527229941;0.0038268343236508447;0;0;0;0;0
7.1880038749139308;0.0047139673682598917;0;0;0;0;0
7.1942164971048683;0.0055557023301960277;0;0;0;0;0
7.200429119295805;0.0063439328416364307;0;0;0;0;0
7.2066417414867416;0.007071067811865425;0;0;0;0;0
7.2128543636776783;0.0077301045336273001;0;0;0;0;0
7.2190669858686158;0.0083146961230254491;0;0;0;0;0
7.2252796080595525;0.0088192126434835285;0;0;0;0;0
7.2314922302504892;0.0092387953251128353;0;0;0;0;0
7.2377048524414258;0.0095694033573220528;0;0;0;0;0
7.2439174746323625;0.0098078528040322736;0;0;0;0;0
7.2501300968233;0.009951847266721962;0;0;0;0;0
7.2563427190142367;0.01;0;0;0;0;0
7.2625553412051733;0.0099518472667219689;0;0;0;0;0
7.26876796339611;0.0098078528040323118;0;0;0;0;0
7.2749805855870466;0.00956940335732211;0;0;0;0;0
7.2811932077779842;0.0092387953251128561;0;0;0;0;0
7.2874058299689208;0.0088192126434835545;0;0;0;0;0
7.2936184521598575;0.0083146961230254786;0;0;0;0;0
7.2998310743507941;0.0077301045336274242;0;0;0;0;0
7.3060436965417317;0.0070710678118654641;0;0;0;0;0
7.3122563187326683;0.0063439328416364715;0;0;0;0;0
7.318468940923605;0.0055557023301960728;0;0;0;0;0
7.3246815631145417;0.0047139673682600643;0;0;0;0;0
7.3308941853054783;0.0038268343236510256;0;0;0;0;0
7.3371068074964159;0.0029028467725446573;0;0;0;0;0
7.3433194296873525;0.0019509032201613554;0;0;0;0;0
7.3495320518782892;0.00098017140329571839;0;0;0;0;0
7.3557446740692258;1.5189334193246709e-16;0;0;0;0;0
7.3619572962601625;-0.00098017140329541611;0;0;0;0;0
7.3681699184511;-0.0019509032201613361;0;0;0;0;0
7.3743825406420367;-0.0029028467725446391;0;0;0;0;0
7.3805951628329733;-0.0038268343236508764;0;0;0;0;0
7.38680778502391;-0.0047139673682599212;0;0;0;0;0
7.3930204072148475;-0.0055557023301960563;0;0;0;0;0
7.3992330294057842;-0.0063439328416364576;0;0;0;0;0
7.4054456515967209;-0.0070710678118654493;0;0;0;0;0
7.4116582737876575;-0.0077301045336273209;0;0;0;0;0
7.4178708959785942;-0.0083146961230253884;0;0;0;0;0
7.4240835181695317;-0.0088192126434835458;0;0;0;0;0
7.4302961403604684;-0.0092387953251128491;0;0;0;0;0
7.436508762551405;-0.0095694033573220632;0;0;0;0;0
7.4427213847423417;-0.0098078528040322806;0;0;0;0;0
7.4489340069332783;-0.0099518472667219533;0;0;0;0;0
7.4551466291242159;-0.01;0;0;0;0;0
7.4613592513151525;-0.0099518472667219793;0;0;0;0;0
7.4675718735060892;-0.0098078528040323326;0;0;0;0;0
7.4737844956970259;-0.0095694033573220996;0;0;0;0;0
7.4799971178879625;-0.0092387953251128977;0;0;0;0;0
7.4862097400789001;-0.0088192126434835389;0;0;0;0;0
7.4924223622698367;-0.0083146961230254595;0;0;0;0;0
7.4986349844607734;-0.0077301045336274025;0;0;0;0;0
7.50484760665171;-0.0070710678118655395;0;0;0;0;0
7.5110602288426476;-0.0063439328416364446;0;0;0;0;0
7.5172728510335842;-0.0055557023301960442;0;0;0;0;0
7.5234854732245209;-0.0047139673682600339;0;0;0;0;0
7.5296980954154575;-0.0038268343236509939;0;0;0;0;0
7.5359107176063942;-0.0029028467725447605;0;0;0;0;0
7.5421233397973317;-0.0019509032201613216;0;0;0;0;0
7.5483359619882684;-0.00098017140329568434;0;0;0;0;0
7.5545485841792051;-1.1759085194360945e-16;0;0;0;0;0
7.5607612063701417;0.00098017140329545037;0;0;0;0;0
7.5669738285610784;0.0019509032201610911;0;0;0;0;0
7.5731864507520159;0.0029028467725446716;0;0;0;0;0
7.5793990729429526;0.003826834323650908;0;0;0;0;0
7.5856116951338892;0.0047139673682599524;0;0;0;0;0
7.5918243173248259;0.0055557023301959661;0;0;0;0;0
7.5980369395157634;0.0063439328416364828;0;0;0;0;0
7.6042495617067001;0.0070710678118654736;0;0;0;0;0
7.6104621838976367;0.0077301045336273435;0;0;0;0;0
7.6166748060885734;0.0083146961230254075;0;0;0;0;0
7.62288742827951;0.0088192126434834938;0;0;0;0;0
7.6291000504704476;0.0092387953251128613;0;0;0;0;0
7.6353126726613842;0.0095694033573220736;0;0;0;0;0
7.6415252948523209;0.0098078528040322875;0;0;0;0;0
7.6477379170432576;0.0099518472667219568;0;0;0;0;0
7.6539505392341942;0.01;0;0;0;0;0
7.6601631614251318;0.0099518472667219759;0;0;0;0;0
7.6663757836160684;0.0098078528040323257;0;0;0;0;0
7.6725884058070051;0.0095694033573221326;0;0;0;0;0
7.6788010279979417;0.0092387953251128838;0;0;0;0;0
7.6850136501888793;0.0088192126434835216;0;0;0;0;0
7.6912262723798159;0.0083146961230254404;0;0;0;0;0
7.6974388945707526;0.0077301045336273808;0;0;0;0;0
7.7036515167616892;0.0070710678118655144;0;0;0;0;0
7.7098641389526259;0.0063439328416365279;0;0;0;0;0
7.7160767611435634;0.0055557023301960155;0;0;0;0;0
7.7222893833345001;0.0047139673682600036;0;0;0;0;0
7.7285020055254368;0.0038268343236509622;0;0;0;0;0
7.7347146277163734;0.0029028467725447276;0;0;0;0;0
7.7409272499073101;0.0019509032201614274;0;0;0;0;0
7.7471398720982476;0.00098017140329565008;0;0;0;0;0
7.7533524942891843;8.3288361954751784e-17;0;0;0;0;0
7.7595651164801209;-0.00098017140329548441;0;0;0;0;0
7.7657777386710576;-0.0019509032201611249;0;0;0;0;0
7.7719903608619951;-0.0029028467725445684;0;0;0;0;0
7.7782029830529318;-0.0038268343236508087;0;0;0;0;0
7.7844156052438684;-0.0047139673682599819;0;0;0;0;0
7.7906282274348051;-0.0055557023301959956;0;0;0;0;0
7.7968408496257418;-0.0063439328416363995;0;0;0;0;0
7.8030534718166793;-0.0070710678118654979;0;0;0;0;0
7.809266094007616;-0.007730104533627366;0;0;0;0;0
7.8154787161985526;-0.0083146961230254265;0;0;0;0;0
7.8216913383894893;-0.0088192126434835112;0;0;0;0;0
7.8279039605804259;-0.0092387953251128214;0;0;0;0;0
7.8341165827713635;-0.0095694033573220823;0;0;0;0;0
7.8403292049623001;-0.0098078528040322927;0;0;0;0;0
7.8465418271532368;-0.0099518472667219603;0;0;0;0;0
7.8527544493441734;-0.01;0;0;0;0;0
7.858967071535111;-0.0099518472667219724;0;0;0;0;0
7.8651796937260476;-0.0098078528040323187;0;0;0;0;0
7.8713923159169843;-0.0095694033573221222;0;0;0;0;0
7.877604938107921;-0.0092387953251129255;0;0;0;0;0
7.8838175602988576;-0.0088192126434836395;0;0;0;0;0
7.8900301824897952;-0.0083146961230254213;0;0;0;0;0
7.8962428046807318;-0.0077301045336273591;0;0;0;0;0
7.9024554268716685;-0.0070710678118654918;0;0;0;0;0
7.9086680490626051;-0.0063439328416365027;0;0;0;0;0
7.9148806712535418;-0.0055557023301961049;0;0;0;0;0
7.9210932934444793;-0.0047139673682599741;0;0;0;0;0
7.927305915635416;-0.0038268343236509306;0;0;0;0;0
7.9335185378263526;-0.002902846772544695;0;0;0;0;0
7.9397311600172893;-0.0019509032201613938;0;0;0;0;0
7.9459437822082268;-0.00098017140329561604;0;0;0;0;0
7.9521564043991635;-4.8985871965894131e-17;0;0;0;0;0
7.9583690265901001;0.00098017140329551868;0;0;0;0;0
7.9645816487810368;0.0019509032201611585;0;0;0;0;0
7.9707942709719735;0.0029028467725444652;0;0;0;0;0
7.977006893162911;0.0038268343236508404;0;0;0;0;0
7.9832195153538477;0.0047139673682598873;0;0;0;0;0
7.9894321375447843;0.0055557023301959054;0;0;0;0;0
7.995644759735721;0.0063439328416364264;0;0;0;0;0
8.0018573819266585;0.0070710678118655222;0;0;0;0;0
8.0080700041175952;0.0077301045336273869;0;0;0;0;0
8.0142826263085318;0.0083146961230254456;0;0;0;0;0
8.0204952484994685;0.0088192126434835268;0;0;0;0;0
8.0267078706904051;0.0092387953251128335;0;0;0;0;0
8.0329204928813418;0.0095694033573220511;0;0;0;0;0
8.0391331150722785;0.0098078528040322719;0;0;0;0;0
8.0453457372632151;0.0099518472667219481;0;0;0;0;0
8.0515583594541535;0.01;0;0;0;0;0
8.0577709816450902;0.0099518472667219689;0;0;0;0;0
8.0639836038360269;0.0098078528040323118;0;0;0;0;0
8.0701962260269635;0.0095694033573221118;0;0;0;0;0
8.0764088482179002;0.0092387953251129116;0;0;0;0;0
8.0826214704088368;0.0088192126434836239;0;0;0;0;0
8.0888340925997735;0.0083146961230255601;0;0;0;0;0
8.0950467147907101;0.0077301045336274276;0;0;0;0;0
8.1012593369816468;0.0070710678118655673;0;0;0;0;0
8.1074719591725852;0.0063439328416364758;0;0;0;0;0
8.1136845813635219;0.0055557023301959583;0;0;0;0;0
8.1198972035544585;0.0047139673682600686;0;0;0;0;0
8.1261098257453952;0.0038268343236508989;0;0;0;0;0
8.1323224479363319;0.0029028467725447983;0;0;0;0;0
8.1385350701272685;0.0019509032201613602;0;0;0;0;0
8.1447476923182052;0.00098017140329586475;0;0;0;0;0
8.1509603145091418;1.5679192912905649e-16;0;0;0;0;0
8.1571729367000785;-0.00098017140329555272;0;0;0;0;0
8.1633855588910169;-0.0019509032201613314;0;0;0;0;0
8.1695981810819536;-0.0029028467725447701;0;0;0;0;0
8.1758108032728902;-0.0038268343236508716;0;0;0;0;0
8.1820234254638269;-0.0047139673682600426;0;0;0;0;0
8.1882360476547635;-0.005555702330195934;0;0;0;0;0
8.1944486698457002;-0.0063439328416364524;0;0;0;0;0
8.2006612920366369;-0.0070710678118653461;0;0;0;0;0
8.2068739142275735;-0.0077301045336273192;0;0;0;0;0
8.2130865364185102;-0.0083146961230253068;0;0;0;0;0
8.2192991586094468;-0.0088192126434834765;0;0;0;0;0
8.2255117808003853;-0.0092387953251128457;0;0;0;0;0
8.2317244029913219;-0.0095694033573221031;0;0;0;0;0
8.2379370251822586;-0.0098078528040322788;0;0;0;0;0
8.2441496473731952;-0.0099518472667219655;0;0;0;0;0
8.2503622695641319;-0.01;0;0;0;0;0
8.2565748917550685;-0.0099518472667219793;0;0;0;0;0
8.2627875139460052;-0.0098078528040323049;0;0;0;0;0
8.2690001361369418;-0.009569403357322143;0;0;0;0;0
8.2752127583278785;-0.0092387953251128994;0;0;0;0;0
8.2814253805188169;-0.0088192126434835406;0;0;0;0;0
8.2876380027097536;-0.0083146961230253832;0;0;0;0;0
8.2938506249006902;-0.0077301045336274059;0;0;0;0;0
8.3000632470916269;-0.0070710678118654424;0;0;0;0;0
8.3062758692825636;-0.0063439328416365591;0;0;0;0;0
8.3124884914735002;-0.0055557023301960485;0;0;0;0;0
8.3187011136644369;-0.004713967368260164;0;0;0;0;0
8.3249137358553735;-0.0038268343236509982;0;0;0;0;0
8.3311263580463102;-0.0029028467725449015;0;0;0;0;0
8.3373389802372486;-0.0019509032201611869;0;0;0;0;0
8.3435516024281853;-0.00098017140329568911;0;0;0;0;0
8.3497642246191219;1.9619108011821185e-17;0;0;0;0;0
8.3559768468100586;0.00098017140329544538;0;0;0;0;0
8.3621894690009952;0.0019509032201612255;0;0;0;0;0
8.3684020911919319;0.0029028467725446669;0;0;0;0;0
8.3746147133828686;0.0038268343236507723;0;0;0;0;0
8.3808273355738052;0.004713967368259948;0;0;0;0;0
8.3870399577647419;0.0055557023301958447;0;0;0;0;0
8.3932525799556785;0.0063439328416363691;0;0;0;0;0
8.399465202146617;0.0070710678118654701;0;0;0;0;0
8.4056778243375536;0.0077301045336274302;0;0;0;0;0
8.4118904465284903;0.008314696123025404;0;0;0;0;0
8.4181030687194269;0.0088192126434835597;0;0;0;0;0
8.4243156909103636;0.0092387953251128058;0;0;0;0;0
8.4305283131013002;0.0095694033573220719;0;0;0;0;0
8.4367409352922369;0.009807852804032258;0;0;0;0;0
8.4429535574831736;0.0099518472667219551;0;0;0;0;0
8.4491661796741102;0.01;0;0;0;0;0
8.4553788018650486;0.009951847266721962;0;0;0;0;0
8.4615914240559853;0.0098078528040322719;0;0;0;0;0
8.467804046246922;0.0095694033573220909;0;0;0;0;0
8.4740166684378586;0.0092387953251128318;0;0;0;0;0
8.4802292906287953;0.0088192126434835909;0;0;0;0;0
8.4864419128197319;0.0083146961230254439;0;0;0;0;0
8.4926545350106686;0.0077301045336274745;0;0;0;0;0
8.4988671572016052;0.0070710678118655196;0;0;0;0;0
8.5050797793925419;0.0063439328416366424;0;0;0;0;0
8.5112924015834786;0.0055557023301961387;0;0;0;0;0
8.517505023774417;0.0047139673682600079;0;0;0;0;0
8.5237176459653536;0.0038268343236508356;0;0;0;0;0
8.5299302681562903;0.0029028467725447328;0;0;0;0;0
8.536142890347227;0.0019509032201612928;0;0;0;0;0
8.5423555125381636;0.00098017140329579645;0;0;0;0;0
8.5485681347291003;8.8186949151341198e-17;0;0;0;0;0
8.5547807569200369;-0.00098017140329533805;0;0;0;0;0
8.5609933791109736;-0.0019509032201611199;0;0;0;0;0
8.5672060013019102;-0.0029028467725445632;0;0;0;0;0
8.5734186234928487;-0.0038268343236509349;0;0;0;0;0
8.5796312456837853;-0.0047139673682601033;0;0;0;0;0
8.585843867874722;-0.0055557023301959904;0;0;0;0;0
8.5920564900656586;-0.0063439328416365062;0;0;0;0;0
8.5982691122565953;-0.0070710678118653938;0;0;0;0;0
8.6044817344475319;-0.0077301045336273626;0;0;0;0;0
8.6106943566384686;-0.008314696123025345;0;0;0;0;0
8.6169069788294053;-0.0088192126434835077;0;0;0;0;0
8.6231196010203419;-0.0092387953251127641;0;0;0;0;0
8.6293322232112804;-0.0095694033573221222;0;0;0;0;0
8.635544845402217;-0.0098078528040322927;0;0;0;0;0
8.6417574675931537;-0.0099518472667219724;0;0;0;0;0
8.6479700897840903;-0.01;0;0;0;0;0
8.654182711975027;-0.0099518472667219724;0;0;0;0;0
8.6603953341659636;-0.0098078528040323482;0;0;0;0;0
8.6666079563569003;-0.0095694033573221222;0;0;0;0;0
8.6728205785478369;-0.0092387953251128734;0;0;0;0;0
8.6790332007387736;-0.0088192126434836413;0;0;0;0;0
8.6852458229297103;-0.0083146961230255029;0;0;0;0;0
8.6914584451206487;-0.0077301045336273626;0;0;0;0;0
8.6976710673115853;-0.0070710678118653938;0;0;0;0;0
8.703883689502522;-0.0063439328416365062;0;0;0;0;0
8.7100963116934587;-0.0055557023301959904;0;0;0;0;0
8.7163089338843953;-0.0047139673682601033;0;0;0;0;0
8.722521556075332;-0.0038268343236509349;0;0;0;0;0
8.7287341782662686;-0.0029028467725448356;0;0;0;0;0
8.7349468004572053;-0.0019509032201613986;0;0;0;0;0
8.7411594226481419;-0.00098017140329590378;0;0;0;0;0
8.7473720448390804;8.8224087989536495e-17;0;0;0;0;0
8.753584667030017;0.00098017140329551369;0;0;0;0;0
8.7597972892209537;0.001950903220161293;0;0;0;0;0
8.7660099114118903;0.0029028467725444609;0;0;0;0;0
8.772222533602827;0.0038268343236508356;0;0;0;0;0
8.7784351557937637;0.0047139673682600079;0;0;0;0;0
8.7846477779847003;0.0055557023301959019;0;0;0;0;0
8.790860400175637;0.0063439328416364229;0;0;0;0;0
8.7970730223665736;0.0070710678118653184;0;0;0;0;0
8.8032856445575121;0.0077301045336274745;0;0;0;0;0
8.8094982667484487;0.0083146961230254439;0;0;0;0;0
8.8157108889393854;0.0088192126434835909;0;0;0;0;0
8.821923511130322;0.0092387953251128318;0;0;0;0;0
8.8281361333212587;0.0095694033573220909;0;0;0;0;0
8.8343487555121953;0.0098078528040322719;0;0;0;0;0
8.840561377703132;0.009951847266721962;0;0;0;0;0
8.8467739998940687;0.01;0;0;0;0;0
8.8529866220850053;0.0099518472667219846;0;0;0;0;0
8.859199244275942;0.009807852804032369;0;0;0;0;0
8.8654118664668804;0.0095694033573220719;0;0;0;0;0
8.8716244886578171;0.0092387953251129151;0;0;0;0;0
8.8778371108487537;0.008819212643483558;0;0;0;0;0
8.8840497330396904;0.008314696123025404;0;0;0;0;0
8.890262355230627;0.0077301045336274302;0;0;0;0;0
8.8964749774215637;0.0070710678118654701;0;0;0;0;0
8.9026875996125003;0.0063439328416365895;0;0;0;0;0
8.908900221803437;0.0055557023301960806;0;0;0;0;0
8.9151128439943736;0.0047139673682601987;0;0;0;0;0
8.9213254661853121;0.0038268343236507719;0;0;0;0;0
8.9275380883762487;0.0029028467725446669;0;0;0;0;0
8.9337507105671854;0.0019509032201612255;0;0;0;0;0
8.939963332758122;0.00098017140329572814;0;0;0;0;0
8.9461759549490587;1.9581969173625882e-17;0;0;0;0;0
8.9523885771399954;-0.00098017140329540635;0;0;0;0;0
8.958601199330932;-0.0019509032201611874;0;0;0;0;0
8.9648138215218687;-0.0029028467725443576;0;0;0;0;0
8.9710264437128053;-0.0038268343236507359;0;0;0;0;0
8.9772390659037438;-0.0047139673682599133;0;0;0;0;0
8.9834516880946804;-0.0055557023301960485;0;0;0;0;0
8.9896643102856171;-0.0063439328416365591;0;0;0;0;0
8.9958769324765537;-0.0070710678118654424;0;0;0;0;0
9.0020895546674904;-0.0077301045336274059;0;0;0;0;0
9.008302176858427;-0.0083146961230253832;0;0;0;0;0
9.0145147990493637;-0.0088192126434835406;0;0;0;0;0
9.0207274212403004;-0.0092387953251127902;0;0;0;0;0
9.026940043431237;-0.0095694033573220615;0;0;0;0;0
9.0331526656221737;-0.0098078528040322493;0;0;0;0;0
9.0393652878131121;-0.0099518472667219793;0;0;0;0;0
9.0455779100040488;-0.01;0;0;0;0;0
9.0517905321949854;-0.0099518472667219655;0;0;0;0;0
9.0580031543859221;-0.0098078528040323344;0;0;0;0;0
9.0642157765768587;-0.0095694033573221031;0;0;0;0;0
9.0704283987677954;-0.009238795325112955;0;0;0;0;0
9.076641020958732;-0.00881921264348361;0;0;0;0;0
9.0828536431496687;-0.0083146961230256243;0;0;0;0;0
9.0890662653406054;-0.0077301045336274988;0;0;0;0;0
9.0952788875315438;-0.0070710678118653461;0;0;0;0;0
9.1014915097224804;-0.0063439328416364524;0;0;0;0;0
9.1077041319134171;-0.005555702330195934;0;0;0;0;0
9.1139167541043538;-0.0047139673682600426;0;0;0;0;0
9.1201293762952904;-0.0038268343236508716;0;0;0;0;0
9.1263419984862271;-0.0029028467725447701;0;0;0;0;0
9.1325546206771637;-0.0019509032201613314;0;0;0;0;0
9.1387672428681004;-0.0009801714032958357;0;0;0;0;0
9.144979865059037;-1.2738802633678828e-16;0;0;0;0;0
9.1511924872499755;0.00098017140329558199;0;0;0;0;0
9.1574051094409121;0.0019509032201613602;0;0;0;0;0
9.1636177316318488;0.0029028467725445263;0;0;0;0;0
9.1698303538227854;0.0038268343236508989;0;0;0;0;0
9.1760429760137221;0.0047139673682598179;0;0;0;0;0
9.1822555982046588;0.0055557023301959583;0;0;0;0;0
9.1884682203955954;0.0063439328416362564;0;0;0;0;0
9.1946808425865321;0.0070710678118653661;0;0;0;0;0
9.2008934647774687;0.0077301045336273366;0;0;0;0;0
9.2071060869684054;0.0083146961230253242;0;0;0;0;0
9.2133187091593438;0.0088192126434836239;0;0;0;0;0
9.2195313313502805;0.0092387953251128578;0;0;0;0;0
9.2257439535412171;0.0095694033573221118;0;0;0;0;0
9.2319565757321538;0.009807852804032284;0;0;0;0;0
9.2381691979230904;0.0099518472667219689;0;0;0;0;0
9.2443818201140271;0.01;0;0;0;0;0
9.2505944423049637;0.0099518472667219776;0;0;0;0;0
9.2568070644959004;0.0098078528040323552;0;0;0;0;0
9.2630196866868371;0.0095694033573221343;0;0;0;0;0
9.2692323088777755;0.0092387953251128873;0;0;0;0;0
9.2754449310687122;0.0088192126434835268;0;0;0;0;0
9.2816575532596488;0.0083146961230255254;0;0;0;0;0
9.2878701754505855;0.0077301045336273869;0;0;0;0;0
9.2940827976415221;0.0070710678118656228;0;0;0;0;0
