#Time;LinearAccX;LinearAccY;LinearAccZ;AngularAccX;AngularAccY;AngularAccZ
0;0;0;0;0;0;0
0.011643181329327037;0.00098017140329560628;0;0;0;0;0
0.023286362658654074;0.0019509032201612828;0;0;0;0;0
0.034929543987981107;0.0029028467725446235;0;0;0;0;0
0.046572725317308147;0.0038268343236508981;0;0;0;0;0
0.058215906646635188;0.0047139673682599767;0;0;0;0;0
0.069859087975962214;0.0055557023301960216;0;0;0;0;0
0.081502269305289254;0.006343932841636455;0;0;0;0;0
0.093145450634616295;0.0070710678118654762;0;0;0;0;0
0.10478863196394334;0.0077301045336273704;0;0;0;0;0
0.11643181329327038;0.0083146961230254526;0;0;0;0;0
0.12807499462259742;0.0088192126434835511;0;0;0;0;0
0.13971817595192443;0.0092387953251128682;0;0;0;0;0
0.15136135728125147;0.0095694033573220892;0;0;0;0;0
0.16300453861057851;0.0098078528040323049;0;0;0;0;0
0.17464771993990555;0.0099518472667219689;0;0;0;0;0
0.18629090126923259;0.01;0;0;0;0;0
0.19793408259855963;0.0099518472667219689;0;0;0;0;0
0.20957726392788667;0.0098078528040323049;0;0;0;0;0
0.22122044525721371;0.0095694033573220892;0;0;0;0;0
0.23286362658654075;0.0092387953251128682;0;0;0;0;0
0.24450680791586776;0.0088192126434835511;0;0;0;0;0
0.25614998924519483;0.0083146961230254508;0;0;0;0;0
0.26779317057452184;0.0077301045336273678;0;0;0;0;0
0.27943635190384886;0.0070710678118654762;0;0;0;0;0
0.29107953323317592;0.006343932841636455;0;0;0;0;0
0.30272271456250294;0.0055557023301960216;0;0;0;0;0
0.31436589589183001;0.0047139673682599741;0;0;0;0;0
0.32600907722115702;0.0038268343236508989;0;0;0;0;0
0.33765225855048409;0.0029028467725446196;0;0;0;0;0
0.3492954398798111;0.0019509032201612817;0;0;0;0;0
0.36093862120913817;0.00098017140329560389;0;0;0;0;0
0.37258180253846518;-3.2162452993532734e-18;0;0;0;0;0
0.38422498386779219;-0.00098017140329560585;0;0;0;0;0
0.39586816519711926;-0.0019509032201612837;0;0;0;0;0
0.40751134652644627;-0.0029028467725446213;0;0;0;0;0
0.41915452785577334;-0.0038268343236509007;0;0;0;0;0
0.43079770918510035;-0.0047139673682599767;0;0;0;0;0
0.44244089051442742;-0.0055557023301960233;0;0;0;0;0
0.45408407184375443;-0.0063439328416364559;0;0;0;0;0
0.4657272531730815;-0.0070710678118654771;0;0;0;0;0
0.47737043450240851;-0.0077301045336273721;0;0;0;0;0
0.48901361583173553;-0.0083146961230254526;0;0;0;0;0
0.50065679716106259;-0.0088192126434835528;0;0;0;0;0
0.51229997849038966;-0.0092387953251128682;0;0;0;0;0
0.52394315981971662;-0.0095694033573220892;0;0;0;0;0
0.53558634114904369;-0.0098078528040323049;0;0;0;0;0
0.54722952247837076;-0.0099518472667219689;0;0;0;0;0
0.55887270380769771;-0.01;0;0;0;0;0
0.57051588513702478;-0.0099518472667219689;0;0;0;0;0
0.58215906646635185;-0.0098078528040323049;0;0;0;0;0
0.59380224779567892;-0.0095694033573220875;0;0;0;0;0
0.60544542912500587;-0.0092387953251128665;0;0;0;0;0
0.61708861045433294;-0.0088192126434835511;0;0;0;0;0
0.62873179178366001;-0.0083146961230254508;0;0;0;0;0
0.64037497311298708;-0.0077301045336273634;0;0;0;0;0
0.65201815444231404;-0.0070710678118654771;0;0;0;0;0
0.6636613357716411;-0.0063439328416364524;0;0;0;0;0
0.67530451710096817;-0.0055557023301960155;0;0;0;0;0
0.68694769843029513;-0.0047139673682599793;0;0;0;0;0
0.6985908797596222;-0.0038268343236508959;0;0;0;0;0
0.71023406108894926;-0.0029028467725446161;0;0;0;0;0
0.72187724241827633;-0.0019509032201612787;0;0;0;0;0
0.73352042374760329;-0.00098017140329560498;0;0;0;0;0
0.74516360507693036;6.4324905987065469e-18;0;0;0;0;0
0.75680678640625743;0.0009801714032956091;0;0;0;0;0
0.76844996773558438;0.0019509032201612826;0;0;0;0;0
0.78009314906491145;0.00290284677254462;0;0;0;0;0
0.79173633039423852;0.0038268343236508994;0;0;0;0;0
0.80337951172356559;0.0047139673682599836;0;0;0;0;0
0.81502269305289254;0.0055557023301960181;0;0;0;0;0
0.82666587438221961;0.0063439328416364559;0;0;0;0;0
0.83830905571154668;0.0070710678118654788;0;0;0;0;0
0.84995223704087364;0.007730104533627366;0;0;0;0;0
0.86159541837020071;0.0083146961230254526;0;0;0;0;0
0.87323859969952777;0.0088192126434835528;0;0;0;0;0
0.88488178102885484;0.0092387953251128682;0;0;0;0;0
0.8965249623581818;0.0095694033573220892;0;0;0;0;0
0.90816814368750887;0.0098078528040323049;0;0;0;0;0
0.91981132501683593;0.0099518472667219689;0;0;0;0;0
0.931454506346163;0.01;0;0;0;0;0
0.94309768767548996;0.0099518472667219689;0;0;0;0;0
0.95474086900481703;0.0098078528040323031;0;0;0;0;0
0.9663840503341441;0.0095694033573220875;0;0;0;0;0
0.97802723166347105;0.0092387953251128682;0;0;0;0;0
0.98967041299279812;0.0088192126434835511;0;0;0;0;0
1.0013135943221252;0.0083146961230254456;0;0;0;0;0
1.0129567756514521;0.0077301045336273756;0;0;0;0;0
1.0245999569807793;0.007071067811865471;0;0;0;0;0
1.0362431383101063;0.0063439328416364541;0;0;0;0;0
1.0478863196394332;0.0055557023301960233;0;0;0;0;0
1.0595295009687604;0.0047139673682599645;0;0;0;0;0
1.0711726822980874;0.003826834323650889;0;0;0;0;0
1.0828158636274143;0.0029028467725446343;0;0;0;0;0
1.0944590449567415;0.0019509032201612798;0;0;0;0;0
1.1061022262860685;0.00098017140329560628;0;0;0;0;0
1.1177454076153954;3.6739403974420592e-18;0;0;0;0;0
1.1293885889447226;-0.00098017140329561669;0;0;0;0;0
1.1410317702740496;-0.0019509032201612899;0;0;0;0;0
1.1526749516033767;-0.0029028467725446278;0;0;0;0;0
1.1643181329327037;-0.0038268343236508985;0;0;0;0;0
1.1759613142620307;-0.0047139673682599741;0;0;0;0;0
1.1876044955913578;-0.005555702330196032;0;0;0;0;0
1.1992476769206848;-0.006343932841636462;0;0;0;0;0
1.2108908582500117;-0.0070710678118654788;0;0;0;0;0
1.2225340395793389;-0.0077301045336273713;0;0;0;0;0
1.2341772209086659;-0.0083146961230254508;0;0;0;0;0
1.2458204022379928;-0.0088192126434835493;0;0;0;0;0
1.25746358356732;-0.0092387953251128717;0;0;0;0;0
1.269106764896647;-0.0095694033573220909;0;0;0;0;0
1.2807499462259742;-0.0098078528040323083;0;0;0;0;0
1.2923931275553011;-0.0099518472667219689;0;0;0;0;0
1.3040363088846281;-0.01;0;0;0;0;0
1.3156794902139552;-0.0099518472667219689;0;0;0;0;0
1.3273226715432822;-0.0098078528040323031;0;0;0;0;0
1.3389658528726092;-0.0095694033573220875;0;0;0;0;0
1.3506090342019363;-0.0092387953251128613;0;0;0;0;0
1.3622522155312633;-0.0088192126434835511;0;0;0;0;0
1.3738953968605903;-0.008314696123025456;0;0;0;0;0
1.3855385781899174;-0.0077301045336273643;0;0;0;0;0
1.3971817595192444;-0.0070710678118654727;0;0;0;0;0
1.4088249408485713;-0.0063439328416364541;0;0;0;0;0
1.4204681221778985;-0.0055557023301960095;0;0;0;0;0
1.4321113035072255;-0.0047139673682599819;0;0;0;0;0
1.4437544848365527;-0.0038268343236508903;0;0;0;0;0
1.4553976661658796;-0.0029028467725446187;0;0;0;0;0
1.4670408474952066;-0.0019509032201612808;0;0;0;0;0
1.4786840288245338;-0.0009801714032955898;0;0;0;0;0
1.4903272101538607;1.2864981197413094e-17;0;0;0;0;0
1.5019703914831877;0.00098017140329559782;0;0;0;0;0
1.5136135728125149;0.0019509032201612886;0;0;0;0;0
1.5252567541418418;0.0029028467725446261;0;0;0;0;0
1.5368999354711688;0.0038268343236508972;0;0;0;0;0
1.5485431168004959;0.0047139673682599888;0;0;0;0;0
1.5601862981298229;0.0055557023301960164;0;0;0;0;0
1.5718294794591501;0.0063439328416364602;0;0;0;0;0
1.583472660788477;0.0070710678118654779;0;0;0;0;0
1.595115842117804;0.0077301045336273704;0;0;0;0;0
1.6067590234471312;0.0083146961230254595;0;0;0;0;0
1.6184022047764581;0.0088192126434835563;0;0;0;0;0
1.6300453861057851;0.0092387953251128647;0;0;0;0;0
1.6416885674351123;0.0095694033573220909;0;0;0;0;0
1.6533317487644392;0.0098078528040323049;0;0;0;0;0
1.6649749300937662;0.0099518472667219689;0;0;0;0;0
1.6766181114230934;0.01;0;0;0;0;0
1.6882612927524203;0.0099518472667219689;0;0;0;0;0
1.6999044740817473;0.0098078528040323066;0;0;0;0;0
1.7115476554110745;0.0095694033573220892;0;0;0;0;0
1.7231908367404014;0.0092387953251128682;0;0;0;0;0
1.7348340180697286;0.0088192126434835441;0;0;0;0;0
1.7464771993990555;0.0083146961230254474;0;0;0;0;0
1.7581203807283825;0.007730104533627366;0;0;0;0;0
1.7697635620577097;0.0070710678118654736;0;0;0;0;0
1.7814067433870366;0.006343932841636455;0;0;0;0;0
1.7930499247163636;0.0055557023301960251;0;0;0;0;0
1.8046931060456908;0.0047139673682599671;0;0;0;0;0
1.8163362873750177;0.0038268343236508911;0;0;0;0;0
1.8279794687043447;0.00290284677254462;0;0;0;0;0
1.8396226500336719;0.0019509032201612821;0;0;0;0;0
1.8512658313629988;0.00098017140329560888;0;0;0;0;0
1.862909012692326;-1.164033439826574e-17;0;0;0;0;0
1.874552194021653;-0.0009801714032956143;0;0;0;0;0
1.8861953753509799;-0.0019509032201612876;0;0;0;0;0
1.8978385566803071;-0.0029028467725446421;0;0;0;0;0
1.9094817380096341;-0.0038268343236509124;0;0;0;0;0
1.921124919338961;-0.0047139673682599879;0;0;0;0;0
1.9327681006682882;-0.0055557023301960294;0;0;0;0;0
1.9444112819976151;-0.0063439328416364594;0;0;0;0;0
1.9560544633269421;-0.0070710678118654771;0;0;0;0;0
1.9676976446562693;-0.0077301045336273687;0;0;0;0;0
1.9793408259855962;-0.0083146961230254508;0;0;0;0;0
1.9909840073149232;-0.0088192126434835476;0;0;0;0;0
2.0026271886442504;-0.0092387953251128769;0;0;0;0;0
2.0142703699735773;-0.0095694033573220857;0;0;0;0;0
2.0259135513029043;-0.0098078528040323014;0;0;0;0;0
2.0375567326322312;-0.0099518472667219672;0;0;0;0;0
2.0491999139615587;-0.01;0;0;0;0;0
2.0608430952908856;-0.0099518472667219689;0;0;0;0;0
2.0724862766202126;-0.0098078528040323031;0;0;0;0;0
2.0841294579495395;-0.0095694033573220892;0;0;0;0;0
2.0957726392788665;-0.0092387953251128682;0;0;0;0;0
2.1074158206081939;-0.0088192126434835354;0;0;0;0;0
2.1190590019375208;-0.0083146961230254387;0;0;0;0;0
2.1307021832668478;-0.0077301045336273556;0;0;0;0;0
2.1423453645961748;-0.0070710678118654615;0;0;0;0;0
2.1539885459255017;-0.0063439328416364706;0;0;0;0;0
2.1656317272548287;-0.0055557023301960407;0;0;0;0;0
2.1772749085841561;-0.004713967368259968;0;0;0;0;0
2.188918089913483;-0.0038268343236508924;0;0;0;0;0
2.20056127124281;-0.0029028467725446213;0;0;0;0;0
2.2122044525721369;-0.0019509032201612834;0;0;0;0;0
2.2238476339014639;-0.00098017140329560997;0;0;0;0;0
2.2354908152307909;-7.3478807948841184e-18;0;0;0;0;0
2.2471339965601183;0.00098017140329563078;0;0;0;0;0
2.2587771778894452;0.0019509032201613036;0;0;0;0;0
2.2704203592187722;0.0029028467725446413;0;0;0;0;0
2.2820635405480991;0.0038268343236509111;0;0;0;0;0
2.2937067218774261;0.0047139673682599558;0;0;0;0;0
2.3053499032067535;0.0055557023301960285;0;0;0;0;0
2.3169930845360804;0.0063439328416364585;0;0;0;0;0
2.3286362658654074;0.0070710678118654762;0;0;0;0;0
2.3402794471947344;0.0077301045336273678;0;0;0;0;0
2.3519226285240613;0.0083146961230254491;0;0;0;0;0
2.3635658098533883;0.0088192126434835458;0;0;0;0;0
2.3752089911827157;0.0092387953251128769;0;0;0;0;0
2.3868521725120426;0.0095694033573220944;0;0;0;0;0
2.3984953538413696;0.0098078528040323083;0;0;0;0;0
2.4101385351706965;0.0099518472667219707;0;0;0;0;0
2.4217817165000235;0.01;0;0;0;0;0
2.4334248978293509;0.0099518472667219689;0;0;0;0;0
2.4450680791586779;0.0098078528040323049;0;0;0;0;0
2.4567112604880048;0.0095694033573220892;0;0;0;0;0
2.4683544418173318;0.0092387953251128682;0;0;0;0;0
2.4799976231466587;0.0088192126434835545;0;0;0;0;0
2.4916408044759857;0.0083146961230254578;0;0;0;0;0
2.5032839858053131;0.0077301045336273556;0;0;0;0;0
2.51492716713464;0.0070710678118654623;0;0;0;0;0
2.526570348463967;0.0063439328416364437;0;0;0;0;0
2.538213529793294;0.0055557023301960129;0;0;0;0;0
2.5498567111226209;0.0047139673682599697;0;0;0;0;0
2.5614998924519483;0.0038268343236508608;0;0;0;0;0
2.5731430737812753;0.0029028467725446222;0;0;0;0;0
2.5847862551106022;0.0019509032201612845;0;0;0;0;0
2.5964294364399292;0.00098017140329561127;0;0;0;0;0
2.6080726177692561;8.572527594031472e-18;0;0;0;0;0
2.6197157990985831;-0.00098017140329559414;0;0;0;0;0
2.6313589804279105;-0.0019509032201613025;0;0;0;0;0
2.6430021617572375;-0.00290284677254464;0;0;0;0;0
2.6546453430865644;-0.0038268343236509102;0;0;0;0;0
2.6662885244158914;-0.0047139673682599853;0;0;0;0;0
2.6779317057452183;-0.0055557023301960277;0;0;0;0;0
2.6895748870745457;-0.0063439328416364854;0;0;0;0;0
2.7012180684038727;-0.0070710678118655005;0;0;0;0;0
2.7128612497331996;-0.0077301045336273678;0;0;0;0;0
2.7245044310625266;-0.0083146961230254491;0;0;0;0;0
2.7361476123918536;-0.0088192126434835458;0;0;0;0;0
2.7477907937211805;-0.009238795325112863;0;0;0;0;0
2.7594339750505079;-0.0095694033573220944;0;0;0;0;0
2.7710771563798349;-0.0098078528040323083;0;0;0;0;0
2.7827203377091618;-0.0099518472667219707;0;0;0;0;0
2.7943635190384888;-0.01;0;0;0;0;0
2.8060067003678157;-0.0099518472667219689;0;0;0;0;0
2.8176498816971427;-0.0098078528040323049;0;0;0;0;0
2.8292930630264701;-0.0095694033573220788;0;0;0;0;0
2.8409362443557971;-0.0092387953251128561;0;0;0;0;0
2.852579425685124;-0.0088192126434835545;0;0;0;0;0
2.864222607014451;-0.0083146961230254595;0;0;0;0;0
2.8758657883437779;-0.0077301045336273791;0;0;0;0;0
2.8875089696731053;-0.0070710678118654641;0;0;0;0;0
2.8991521510024323;-0.0063439328416364437;0;0;0;0;0
2.9107953323317592;-0.0055557023301960138;0;0;0;0;0
2.9224385136610862;-0.0047139673682599706;0;0;0;0;0
2.9340816949904132;-0.0038268343236508946;0;0;0;0;0
2.9457248763197401;-0.0029028467725446235;0;0;0;0;0
2.9573680576490675;-0.0019509032201612509;0;0;0;0;0
2.9690112389783945;-0.00098017140329557701;0;0;0;0;0
2.9806544203077214;2.5729962394826188e-17;0;0;0;0;0
2.9922976016370484;0.00098017140329559284;0;0;0;0;0
3.0039407829663753;0.0019509032201612665;0;0;0;0;0
3.0155839642957027;0.0029028467725446391;0;0;0;0;0
3.0272271456250297;0.0038268343236509089;0;0;0;0;0
3.0388703269543567;0.0047139673682599845;0;0;0;0;0
3.0505135082836836;0.0055557023301960277;0;0;0;0;0
3.0621566896130106;0.0063439328416364576;0;0;0;0;0
3.0737998709423375;0.0070710678118654745;0;0;0;0;0
3.0854430522716649;0.0077301045336273886;0;0;0;0;0
3.0970862336009919;0.0083146961230254682;0;0;0;0;0
3.1087294149303188;0.0088192126434835615;0;0;0;0;0
3.1203725962596458;0.0092387953251128613;0;0;0;0;0
3.1320157775889728;0.009569403357322084;0;0;0;0;0
3.1436589589183002;0.0098078528040323083;0;0;0;0;0
3.1553021402476271;0.0099518472667219707;0;0;0;0;0
3.1669453215769541;0.01;0;0;0;0;0
3.178588502906281;0.0099518472667219689;0;0;0;0;0
3.190231684235608;0.0098078528040323049;0;0;0;0;0
3.2018748655649349;0.0095694033573220892;0;0;0;0;0
3.2135180468942623;0.0092387953251128561;0;0;0;0;0
3.2251612282235893;0.0088192126434835389;0;0;0;0;0
3.2368044095529163;0.0083146961230254404;0;0;0;0;0
3.2484475908822432;0.0077301045336273582;0;0;0;0;0
3.2600907722115702;0.0070710678118654892;0;0;0;0;0
3.2717339535408971;0.0063439328416364724;0;0;0;0;0
3.2833771348702245;0.0055557023301960155;0;0;0;0;0
3.2950203161995515;0.0047139673682599715;0;0;0;0;0
3.3066634975288784;0.0038268343236508959;0;0;0;0;0
3.3183066788582054;0.0029028467725446244;0;0;0;0;0
3.3299498601875324;0.0019509032201612869;0;0;0;0;0
3.3415930415168598;0.00098017140329557831;0;0;0;0;0
3.3532362228461867;-2.4505315595678831e-17;0;0;0;0;0
3.3648794041755137;-0.0009801714032956271;0;0;0;0;0
3.3765225855048406;-0.0019509032201612999;0;0;0;0;0
3.3881657668341676;-0.0029028467725446374;0;0;0;0;0
3.3998089481634945;-0.0038268343236508751;0;0;0;0;0
3.4114521294928219;-0.0047139673682599836;0;0;0;0;0
3.4230953108221489;-0.0055557023301960259;0;0;0;0;0
3.4347384921514759;-0.0063439328416364559;0;0;0;0;0
3.4463816734808028;-0.0070710678118654736;0;0;0;0;0
3.4580248548101298;-0.007730104533627366;0;0;0;0;0
3.4696680361394572;-0.0083146961230254664;0;0;0;0;0
3.4813112174687841;-0.0088192126434835615;0;0;0;0;0
3.4929543987981111;-0.0092387953251128752;0;0;0;0;0
3.5045975801274381;-0.0095694033573220944;0;0;0;0;0
3.516240761456765;-0.0098078528040323066;0;0;0;0;0
3.527883942786092;-0.0099518472667219689;0;0;0;0;0
3.5395271241154194;-0.01;0;0;0;0;0
3.5511703054447463;-0.0099518472667219689;0;0;0;0;0
3.5628134867740733;-0.0098078528040323049;0;0;0;0;0
3.5744566681034002;-0.0095694033573220892;0;0;0;0;0
3.5860998494327272;-0.0092387953251128717;0;0;0;0;0
3.5977430307620546;-0.0088192126434835389;0;0;0;0;0
3.6093862120913816;-0.0083146961230254404;0;0;0;0;0
3.6210293934207085;-0.0077301045336273582;0;0;0;0;0
3.6326725747500355;-0.0070710678118654649;0;0;0;0;0
3.6443157560793624;-0.0063439328416364463;0;0;0;0;0
3.6559589374086894;-0.0055557023301960155;0;0;0;0;0
3.6676021187380168;-0.0047139673682599411;0;0;0;0;0
3.6792453000673437;-0.0038268343236508968;0;0;0;0;0
3.6908884813966707;-0.0029028467725446257;0;0;0;0;0
3.7025316627259977;-0.001950903220161288;0;0;0;0;0
3.7141748440553246;-0.00098017140329561495;0;0;0;0;0
3.725818025384652;2.328066879653148e-17;0;0;0;0;0
3.737461206713979;0.00098017140329562579;0;0;0;0;0
3.7491043880433059;0.0019509032201612988;0;0;0;0;0
3.7607475693726329;0.0029028467725446361;0;0;0;0;0
3.7723907507019598;0.0038268343236509067;0;0;0;0;0
3.7840339320312868;0.0047139673682599819;0;0;0;0;0
3.7956771133606142;0.0055557023301960537;0;0;0;0;0
3.8073202946899412;0.006343932841636455;0;0;0;0;0
3.8189634760192681;0.0070710678118654979;0;0;0;0;0
3.8306066573485951;0.007730104533627366;0;0;0;0;0
3.842249838677922;0.0083146961230254664;0;0;0;0;0
3.853893020007249;0.0088192126434835441;0;0;0;0;0
3.8655362013365764;0.0092387953251128734;0;0;0;0;0
3.8771793826659033;0.0095694033573221048;0;0;0;0;0
3.8888225639952303;0.0098078528040323066;0;0;0;0;0
3.9004657453245573;0.0099518472667219655;0;0;0;0;0
3.9121089266538842;0.01;0;0;0;0;0
3.9237521079832116;0.0099518472667219655;0;0;0;0;0
3.9353952893125386;0.0098078528040323049;0;0;0;0;0
3.9470384706418655;0.0095694033573220788;0;0;0;0;0
3.9586816519711925;0.0092387953251128717;0;0;0;0;0
3.9703248333005194;0.0088192126434835389;0;0;0;0;0
3.9819680146298464;0.0083146961230254612;0;0;0;0;0
3.9936111959591738;0.0077301045336273591;0;0;0;0;0
4.0052543772885008;0.0070710678118654407;0;0;0;0;0
4.0168975586178277;0.0063439328416364472;0;0;0;0;0
4.0285407399471547;0.0055557023301960459;0;0;0;0;0
4.0401839212764816;0.0047139673682599741;0;0;0;0;0
4.0518271026058086;0.0038268343236509306;0;0;0;0;0
4.0634702839351355;0.0029028467725446265;0;0;0;0;0
4.0751134652644625;0.0019509032201613242;0;0;0;0;0
4.0867566465937903;0.00098017140329554535;0;0;0;0;0
4.0983998279231173;-2.2056021997384124e-17;0;0;0;0;0
4.1100430092524443;-0.00098017140329566006;0;0;0;0;0
4.1216861905817712;-0.0019509032201612978;0;0;0;0;0
4.1333293719110982;-0.0029028467725446695;0;0;0;0;0
4.1449725532404251;-0.0038268343236509059;0;0;0;0;0
4.1566157345697521;-0.0047139673682600122;0;0;0;0;0
4.168258915899079;-0.0055557023301960242;0;0;0;0;0
4.179902097228406;-0.0063439328416364264;0;0;0;0;0
4.191545278557733;-0.007071067811865471;0;0;0;0;0
4.2031884598870599;-0.0077301045336273426;0;0;0;0;0
4.2148316412163878;-0.0083146961230254855;0;0;0;0;0
4.2264748225457147;-0.0088192126434835615;0;0;0;0;0
4.2381180038750417;-0.0092387953251128873;0;0;0;0;0
4.2497611852043686;-0.0095694033573220927;0;0;0;0;0
4.2614043665336956;-0.0098078528040323135;0;0;0;0;0
4.2730475478630225;-0.0099518472667219689;0;0;0;0;0
4.2846907291923495;-0.01;0;0;0;0;0
4.2963339105216765;-0.0099518472667219689;0;0;0;0;0
4.3079770918510034;-0.0098078528040323118;0;0;0;0;0
4.3196202731803304;-0.0095694033573220909;0;0;0;0;0
4.3312634545096573;-0.0092387953251128856;0;0;0;0;0
4.3429066358389852;-0.0088192126434835233;0;0;0;0;0
4.3545498171683121;-0.0083146961230254422;0;0;0;0;0
4.3661929984976391;-0.0077301045336273366;0;0;0;0;0
4.377836179826966;-0.0070710678118654667;0;0;0;0;0
4.389479361156293;-0.0063439328416364203;0;0;0;0;0
4.40112254248562;-0.0055557023301960173;0;0;0;0;0
4.4127657238149469;-0.0047139673682599428;0;0;0;0;0
4.4244089051442739;-0.0038268343236508989;0;0;0;0;0
4.4360520864736008;-0.0029028467725446621;0;0;0;0;0
4.4476952678029278;-0.0019509032201612906;0;0;0;0;0
4.4593384491322547;-0.00098017140329565268;0;0;0;0;0
4.4709816304615817;-1.4695761589768237e-17;0;0;0;0;0
4.4826248117909095;0.00098017140329562341;0;0;0;0;0
4.4942679931202365;0.0019509032201613314;0;0;0;0;0
4.5059111744495635;0.0029028467725446339;0;0;0;0;0
4.5175543557788904;0.0038268343236509375;0;0;0;0;0
4.5291975371082174;0.0047139673682599801;0;0;0;0;0
4.5408407184375443;0.005555702330196052;0;0;0;0;0
4.5524838997668713;0.0063439328416364524;0;0;0;0;0
4.5641270810961982;0.0070710678118654962;0;0;0;0;0
4.5757702624255252;0.0077301045336273634;0;0;0;0;0
4.5874134437548522;0.0083146961230254265;0;0;0;0;0
4.5990566250841791;0.0088192126434835424;0;0;0;0;0
4.610699806413507;0.0092387953251128734;0;0;0;0;0
4.6223429877428339;0.0095694033573221031;0;0;0;0;0
4.6339861690721609;0.0098078528040323066;0;0;0;0;0
4.6456293504014878;0.0099518472667219724;0;0;0;0;0
4.6572725317308148;0.01;0;0;0;0;0
4.6689157130601417;0.0099518472667219655;0;0;0;0;0
4.6805588943894687;0.0098078528040323049;0;0;0;0;0
4.6922020757187957;0.0095694033573220805;0;0;0;0;0
4.7038452570481226;0.0092387953251128717;0;0;0;0;0
4.7154884383774496;0.0088192126434835736;0;0;0;0;0
4.7271316197067765;0.008314696123025463;0;0;0;0;0
4.7387748010361044;0.00773010453362736;0;0;0;0;0
4.7504179823654313;0.0070710678118654424;0;0;0;0;0
4.7620611636947583;0.0063439328416364498;0;0;0;0;0
4.7737043450240852;0.0055557023301959895;0;0;0;0;0
4.7853475263534122;0.0047139673682599758;0;0;0;0;0
4.7969907076827392;0.0038268343236508673;0;0;0;0;0
4.8086338890120661;0.0029028467725446296;0;0;0;0;0
4.8202770703413931;0.001950903220161257;0;0;0;0;0
4.83192025167072;0.00098017140329561864;0;0;0;0;0
4.843563433000047;-1.9606728399089417e-17;0;0;0;0;0
4.8552066143293739;-0.00098017140329558698;0;0;0;0;0
4.8668497956587018;-0.0019509032201612954;0;0;0;0;0
4.8784929769880288;-0.0029028467725446669;0;0;0;0;0
4.8901361583173557;-0.0038268343236509033;0;0;0;0;0
4.9017793396466827;-0.0047139673682600105;0;0;0;0;0
4.9134225209760096;-0.0055557023301960216;0;0;0;0;0
4.9250657023053366;-0.0063439328416364793;0;0;0;0;0
4.9367088836346635;-0.0070710678118654701;0;0;0;0;0
4.9483520649639905;-0.007730104533627386;0;0;0;0;0
4.9599952462933175;-0.0083146961230254439;0;0;0;0;0
4.9716384276226444;-0.008819212643483558;0;0;0;0;0
4.9832816089519714;-0.0092387953251128595;0;0;0;0;0
4.9949247902812992;-0.0095694033573221135;0;0;0;0;0
5.0065679716106262;-0.0098078528040323135;0;0;0;0;0
5.0182111529399531;-0.0099518472667219689;0;0;0;0;0
5.0298543342692801;-0.01;0;0;0;0;0
5.041497515598607;-0.0099518472667219689;0;0;0;0;0
5.053140696927934;-0.0098078528040322997;0;0;0;0;0
5.064783878257261;-0.0095694033573220909;0;0;0;0;0
5.0764270595865879;-0.0092387953251128595;0;0;0;0;0
5.0880702409159149;-0.008819212643483558;0;0;0;0;0
5.0997134222452418;-0.0083146961230254439;0;0;0;0;0
5.1113566035745688;-0.0077301045336273834;0;0;0;0;0
5.1229997849038966;-0.0070710678118654181;0;0;0;0;0
5.1346429662332236;-0.0063439328416364229;0;0;0;0;0
5.1462861475625505;-0.0055557023301960199;0;0;0;0;0
5.1579293288918775;-0.0047139673682599454;0;0;0;0;0
5.1695725102212045;-0.0038268343236509011;0;0;0;0;0
5.1812156915505314;-0.0029028467725445966;0;0;0;0;0
5.1928588728798584;-0.0019509032201612928;0;0;0;0;0
5.2045020542091853;-0.00098017140329558438;0;0;0;0;0
5.2161452355385123;-1.7145055188062944e-17;0;0;0;0;0
5.2277884168678392;0.00098017140329562102;0;0;0;0;0
5.2394315981971662;0.0019509032201612592;0;0;0;0;0
5.251074779526494;0.0029028467725446994;0;0;0;0;0
5.262717960855821;0.0038268343236509349;0;0;0;0;0
5.274361142185148;0.0047139673682599784;0;0;0;0;0
5.2860043235144749;0.0055557023301960511;0;0;0;0;0
5.2976475048438019;0.0063439328416364507;0;0;0;0;0
5.3092906861731288;0.0070710678118654944;0;0;0;0;0
5.3209338675024558;0.0077301045336273626;0;0;0;0;0
5.3325770488317827;0.008314696123025463;0;0;0;0;0
5.3442202301611097;0.0088192126434835424;0;0;0;0;0
5.3558634114904367;0.0092387953251128734;0;0;0;0;0
5.3675065928197636;0.0095694033573220823;0;0;0;0;0
5.3791497741490915;0.0098078528040323205;0;0;0;0;0
5.3907929554784184;0.0099518472667219724;0;0;0;0;0
5.4024361368077454;0.01;0;0;0;0;0
5.4140793181370723;0.0099518472667219655;0;0;0;0;0
5.4257224994663993;0.0098078528040323049;0;0;0;0;0
5.4373656807957262;0.0095694033573220823;0;0;0;0;0
5.4490088621250532;0.0092387953251128734;0;0;0;0;0
5.4606520434543802;0.0088192126434835424;0;0;0;0;0
5.4722952247837071;0.008314696123025463;0;0;0;0;0
5.4839384061130341;0.0077301045336273626;0;0;0;0;0
5.495581587442361;0.0070710678118654944;0;0;0;0;0
5.507224768771688;0.0063439328416364507;0;0;0;0;0
5.5188679501010158;0.0055557023301959904;0;0;0;0;0
5.5305111314303428;0.0047139673682599151;0;0;0;0;0
5.5421543127596697;0.0038268343236508694;0;0;0;0;0
5.5537974940889967;0.0029028467725446317;0;0;0;0;0
5.5654406754183237;0.0019509032201612592;0;0;0;0;0
5.5770838567476506;0.00098017140329562081;0;0;0;0;0
5.5887270380769776;-1.7157434800794713e-17;0;0;0;0;0
5.6003702194063045;-0.00098017140329558438;0;0;0;0;0
5.6120134007356315;-0.001950903220161293;0;0;0;0;0
5.6236565820649584;-0.0029028467725445966;0;0;0;0;0
5.6352997633942854;-0.0038268343236509011;0;0;0;0;0
5.6469429447236132;-0.0047139673682600079;0;0;0;0;0
5.6585861260529402;-0.0055557023301960788;0;0;0;0;0
5.6702293073822672;-0.0063439328416364776;0;0;0;0;0
5.6818724887115941;-0.0070710678118655196;0;0;0;0;0
5.6935156700409211;-0.0077301045336273834;0;0;0;0;0
5.705158851370248;-0.0083146961230254439;0;0;0;0;0
5.716802032699575;-0.008819212643483558;0;0;0;0;0
5.7284452140289019;-0.0092387953251128595;0;0;0;0;0
5.7400883953582289;-0.0095694033573220909;0;0;0;0;0
5.7517315766875559;-0.0098078528040322997;0;0;0;0;0
5.7633747580168828;-0.0099518472667219689;0;0;0;0;0
5.7750179393462107;-0.01;0;0;0;0;0
5.7866611206755376;-0.009951847266721962;0;0;0;0;0
5.7983043020048646;-0.0098078528040322997;0;0;0;0;0
5.8099474833341915;-0.0095694033573220719;0;0;0;0;0
5.8215906646635185;-0.0092387953251128595;0;0;0;0;0
5.8332338459928454;-0.008819212643483558;0;0;0;0;0
5.8448770273221724;-0.0083146961230254439;0;0;0;0;0
5.8565202086514994;-0.007730104533627386;0;0;0;0;0
5.8681633899808263;-0.0070710678118654701;0;0;0;0;0
5.8798065713101533;-0.0063439328416364793;0;0;0;0;0
5.8914497526394802;-0.0055557023301960216;0;0;0;0;0
5.9030929339688081;-0.004713967368259948;0;0;0;0;0
5.914736115298135;-0.0038268343236508378;0;0;0;0;0
5.926379296627462;-0.0029028467725445988;0;0;0;0;0
5.9380224779567889;-0.0019509032201612255;0;0;0;0;0
5.9496656592861159;-0.00098017140329558676;0;0;0;0;0
5.9613088406154429;5.1459924789652375e-17;0;0;0;0;0
5.9729520219447698;0.00098017140329561864;0;0;0;0;0
5.9845952032740968;0.001950903220161257;0;0;0;0;0
5.9962383846034237;0.0029028467725446296;0;0;0;0;0
6.0078815659327507;0.0038268343236508673;0;0;0;0;0
6.0195247472620776;0.0047139673682599758;0;0;0;0;0
6.0311679285914055;0.0055557023301960485;0;0;0;0;0
6.0428111099207324;0.0063439328416365036;0;0;0;0;0
6.0544542912500594;0.0070710678118654927;0;0;0;0;0
6.0660974725793864;0.0077301045336274059;0;0;0;0;0
6.0777406539087133;0.008314696123025463;0;0;0;0;0
6.0893838352380403;0.0088192126434835736;0;0;0;0;0
6.1010270165673672;0.0092387953251128717;0;0;0;0;0
6.1126701978966942;0.0095694033573220805;0;0;0;0;0
6.1243133792260211;0.0098078528040323049;0;0;0;0;0
6.1359565605553481;0.0099518472667219655;0;0;0;0;0
6.1475997418846751;0.01;0;0;0;0;0
6.1592429232140029;0.0099518472667219655;0;0;0;0;0
6.1708861045433299;0.0098078528040322927;0;0;0;0;0
6.1825292858726568;0.0095694033573220823;0;0;0;0;0
6.1941724672019838;0.0092387953251128457;0;0;0;0;0
6.2058156485313107;0.0088192126434835424;0;0;0;0;0
6.2174588298606377;0.0083146961230254265;0;0;0;0;0
6.2291020111899646;0.0077301045336273634;0;0;0;0;0
6.2407451925192916;0.0070710678118654962;0;0;0;0;0
6.2523883738486186;0.0063439328416364524;0;0;0;0;0
6.2640315551779455;0.005555702330196052;0;0;0;0;0
6.2756747365072725;0.0047139673682599801;0;0;0;0;0
6.2873179178366003;0.0038268343236508716;0;0;0;0;0
6.2989610991659273;0.0029028467725445662;0;0;0;0;0
6.3106042804952542;0.0019509032201612618;0;0;0;0;0
6.3222474618245812;0.00098017140329555272;0;0;0;0;0
6.3338906431539082;-1.4708141202500005e-17;0;0;0;0;0
6.3455338244832351;-0.00098017140329565268;0;0;0;0;0
6.3571770058125621;-0.0019509032201612906;0;0;0;0;0
6.368820187141889;-0.0029028467725446621;0;0;0;0;0
6.380463368471216;-0.0038268343236508989;0;0;0;0;0
6.3921065498005429;-0.0047139673682599428;0;0;0;0;0
6.4037497311298699;-0.0055557023301960173;0;0;0;0;0
6.4153929124591977;-0.0063439328416364758;0;0;0;0;0
6.4270360937885247;-0.007071067811865517;0;0;0;0;0
6.4386792751178517;-0.0077301045336273825;0;0;0;0;0
6.4503224564471786;-0.0083146961230254821;0;0;0;0;0
6.4619656377765056;-0.0088192126434835563;0;0;0;0;0
6.4736088191058325;-0.0092387953251128856;0;0;0;0;0
6.4852520004351595;-0.0095694033573220909;0;0;0;0;0
6.4968951817644864;-0.0098078528040323118;0;0;0;0;0
6.5085383630938134;-0.0099518472667219689;0;0;0;0;0
6.5201815444231404;-0.01;0;0;0;0;0
6.5318247257524673;-0.0099518472667219689;0;0;0;0;0
6.5434679070817943;-0.0098078528040323135;0;0;0;0;0
6.5551110884111221;-0.0095694033573220719;0;0;0;0;0
6.5667542697404491;-0.0092387953251128613;0;0;0;0;0
6.578397451069776;-0.0088192126434835268;0;0;0;0;0
6.590040632399103;-0.0083146961230254456;0;0;0;0;0
6.6016838137284299;-0.0077301045336273426;0;0;0;0;0
6.6133269950577569;-0.007071067811865471;0;0;0;0;0
6.6249701763870839;-0.0063439328416364264;0;0;0;0;0
6.6366133577164108;-0.0055557023301960242;0;0;0;0;0
6.6482565390457378;-0.0047139673682599498;0;0;0;0;0
6.6598997203750647;-0.0038268343236509059;0;0;0;0;0
6.6715429017043917;-0.002902846772544669;0;0;0;0;0
6.6831860830337195;-0.0019509032201612281;0;0;0;0;0
6.6948292643630465;-0.00098017140329558937;0;0;0;0;0
6.7064724456923734;4.9010631191357662e-17;0;0;0;0;0
6.7181156270217004;0.00098017140329561604;0;0;0;0;0
6.7297588083510274;0.0019509032201613242;0;0;0;0;0
6.7414019896803543;0.0029028467725446265;0;0;0;0;0
6.7530451710096813;0.0038268343236509306;0;0;0;0;0
6.7646883523390082;0.0047139673682599741;0;0;0;0;0
6.7763315336683352;0.0055557023301960459;0;0;0;0;0
6.7879747149976621;0.0063439328416364472;0;0;0;0;0
6.7996178963269891;0.0070710678118654407;0;0;0;0;0
6.8112610776563169;0.0077301045336274042;0;0;0;0;0
6.8229042589856439;0.0083146961230254612;0;0;0;0;0
6.8345474403149709;0.0088192126434835736;0;0;0;0;0
6.8461906216442978;0.0092387953251128717;0;0;0;0;0
6.8578338029736248;0.0095694033573221014;0;0;0;0;0
6.8694769843029517;0.0098078528040323049;0;0;0;0;0
6.8811201656322787;0.0099518472667219724;0;0;0;0;0
6.8927633469616056;0.01;0;0;0;0;0
6.9044065282909326;0.0099518472667219655;0;0;0;0;0
6.9160497096202596;0.0098078528040323066;0;0;0;0;0
6.9276928909495865;0.0095694033573221048;0;0;0;0;0
6.9393360722789144;0.0092387953251128474;0;0;0;0;0
6.9509792536082413;0.0088192126434835441;0;0;0;0;0
6.9626224349375683;0.0083146961230254265;0;0;0;0;0
6.9742656162668952;0.007730104533627366;0;0;0;0;0
6.9859087975962222;0.0070710678118654485;0;0;0;0;0
6.9975519789255491;0.006343932841636455;0;0;0;0;0
7.0091951602548761;0.0055557023301959956;0;0;0;0;0
7.0208383415842031;0.0047139673682599819;0;0;0;0;0
7.03248152291353;0.0038268343236508742;0;0;0;0;0
7.044124704242857;0.0029028467725446361;0;0;0;0;0
7.0557678855721839;0.0019509032201612641;0;0;0;0;0
7.0674110669015118;0.0009801714032955551;0;0;0;0;0
7.0790542482308387;-1.22588476042053e-17;0;0;0;0;0
7.0906974295601657;-0.00098017140329565008;0;0;0;0;0
7.1023406108894926;-0.001950903220161288;0;0;0;0;0
7.1139837922188196;-0.0029028467725446599;0;0;0;0;0
7.1256269735481466;-0.0038268343236508968;0;0;0;0;0
7.1372701548774735;-0.0047139673682600036;0;0;0;0;0
7.1489133362068005;-0.0055557023301960155;0;0;0;0;0
7.1605565175361274;-0.0063439328416364741;0;0;0;0;0
7.1721996988654544;-0.0070710678118654649;0;0;0;0;0
7.1838428801947813;-0.0077301045336273808;0;0;0;0;0
7.1954860615241092;-0.0083146961230254803;0;0;0;0;0
7.2071292428534361;-0.0088192126434835892;0;0;0;0;0
7.2187724241827631;-0.0092387953251128838;0;0;0;0;0
7.2304156055120901;-0.0095694033573220892;0;0;0;0;0
7.242058786841417;-0.0098078528040323118;0;0;0;0;0
7.253701968170744;-0.0099518472667219689;0;0;0;0;0
7.2653451495000709;-0.01;0;0;0;0;0
7.2769883308293979;-0.0099518472667219689;0;0;0;0;0
7.2886315121587248;-0.0098078528040322997;0;0;0;0;0
7.3002746934880518;-0.0095694033573220944;0;0;0;0;0
7.3119178748173788;-0.0092387953251128613;0;0;0;0;0
7.3235610561467066;-0.0088192126434835268;0;0;0;0;0
7.3352042374760336;-0.0083146961230254075;0;0;0;0;0
7.3468474188053605;-0.0077301045336273435;0;0;0;0;0
7.3584906001346875;-0.0070710678118654736;0;0;0;0;0
7.3701337814640144;-0.0063439328416364281;0;0;0;0;0
7.3817769627933414;-0.0055557023301960259;0;0;0;0;0
7.3934201441226683;-0.0047139673682599524;0;0;0;0;0
7.4050633254519953;-0.003826834323650908;0;0;0;0;0
7.4167065067813223;-0.0029028467725446035;0;0;0;0;0
7.4283496881106492;-0.0019509032201612999;0;0;0;0;0
7.4399928694399762;-0.00098017140329559175;0;0;0;0;0
7.451636050769304;4.6561337593062961e-17;0;0;0;0;0
7.463279232098631;0.00098017140329568434;0;0;0;0;0
7.4749224134279579;0.0019509032201613216;0;0;0;0;0
7.4865655947572849;0.0029028467725446929;0;0;0;0;0
7.4982087760866118;0.0038268343236509284;0;0;0;0;0
7.5098519574159388;0.0047139673682599715;0;0;0;0;0
7.5214951387452658;0.0055557023301960442;0;0;0;0;0
7.5331383200745927;0.0063439328416364446;0;0;0;0;0
7.5447815014039197;0.0070710678118654892;0;0;0;0;0
7.5564246827332466;0.0077301045336273582;0;0;0;0;0
7.5680678640625736;0.0083146961230254595;0;0;0;0;0
7.5797110453919005;0.0088192126434835389;0;0;0;0;0
7.5913542267212284;0.0092387953251128977;0;0;0;0;0
7.6029974080505554;0.0095694033573220996;0;0;0;0;0
7.6146405893798823;0.0098078528040323049;0;0;0;0;0
7.6262837707092093;0.0099518472667219793;0;0;0;0;0
7.6379269520385362;0.01;0;0;0;0;0
7.6495701333678632;0.0099518472667219655;0;0;0;0;0
7.6612133146971901;0.0098078528040323083;0;0;0;0;0
7.6728564960265171;0.0095694033573221048;0;0;0;0;0
7.684499677355844;0.0092387953251128491;0;0;0;0;0
7.696142858685171;0.0088192126434835458;0;0;0;0;0
7.707786040014498;0.0083146961230254682;0;0;0;0;0
7.7194292213438258;0.0077301045336273209;0;0;0;0;0
7.7310724026731528;0.0070710678118654493;0;0;0;0;0
7.7427155840024797;0.0063439328416364576;0;0;0;0;0
7.7543587653318067;0.0055557023301959383;0;0;0;0;0
7.7660019466611336;0.0047139673682599212;0;0;0;0;0
7.7776451279904606;0.0038268343236508764;0;0;0;0;0
7.7892883093197876;0.0029028467725446391;0;0;0;0;0
7.8009314906491145;0.0019509032201613361;0;0;0;0;0
7.8125746719784415;0.00098017140329555771;0;0;0;0;0
7.8242178533077684;-9.8095540059105926e-18;0;0;0;0;0
7.8358610346370954;-0.00098017140329557701;0;0;0;0;0
7.8475042159664232;-0.0019509032201613554;0;0;0;0;0
7.8591473972957502;-0.0029028467725446573;0;0;0;0;0
7.8707905786250771;-0.0038268343236508946;0;0;0;0;0
7.8824337599544041;-0.0047139673682600643;0;0;0;0;0
7.8940769412837311;-0.0055557023301960728;0;0;0;0;0
7.905720122613058;-0.0063439328416364715;0;0;0;0;0
7.917363303942385;-0.0070710678118654641;0;0;0;0;0
7.9290064852717119;-0.0077301045336273348;0;0;0;0;0
7.9406496666010389;-0.0083146961230254786;0;0;0;0;0
7.9522928479303658;-0.0088192126434835545;0;0;0;0;0
7.9639360292596928;-0.0092387953251128561;0;0;0;0;0
7.9755792105890206;-0.00956940335732211;0;0;0;0;0
7.9872223919183476;-0.0098078528040323118;0;0;0;0;0
7.9988655732476746;-0.0099518472667219689;0;0;0;0;0
8.0105087545770015;-0.01;0;0;0;0;0
8.0221519359063276;-0.0099518472667219776;0;0;0;0;0
8.0337951172356554;-0.0098078528040323014;0;0;0;0;0
8.0454382985649833;-0.0095694033573220528;0;0;0;0;0
8.0570814798943093;-0.009238795325112889;0;0;0;0;0
8.0687246612236372;-0.0088192126434835285;0;0;0;0;0
8.0803678425529633;-0.0083146961230254491;0;0;0;0;0
8.0920110238822911;-0.0077301045336273001;0;0;0;0;0
8.1036542052116172;-0.0070710678118655257;0;0;0;0;0
8.115297386540945;-0.0063439328416364307;0;0;0;0;0
8.1269405678702711;-0.0055557023301960277;0;0;0;0;0
8.1385837491995989;-0.0047139673682598917;0;0;0;0;0
8.150226930528925;-0.0038268343236509757;0;0;0;0;0
8.1618701118582528;-0.0029028467725446057;0;0;0;0;0
8.1735132931875807;-0.0019509032201611631;0;0;0;0;0
8.1851564745169068;-0.00098017140329566483;0;0;0;0;0
8.1967996558462346;4.4112043994768248e-17;0;0;0;0;0
8.2084428371755607;0.00098017140329561127;0;0;0;0;0
8.2200860185048885;0.001950903220161389;0;0;0;0;0
8.2317291998342146;0.0029028467725445545;0;0;0;0;0
8.2433723811635424;0.0038268343236509262;0;0;0;0;0
8.2550155624928685;0.0047139673682599697;0;0;0;0;0
8.2666587438221963;0.0055557023301961014;0;0;0;0;0
8.2783019251515224;0.0063439328416363882;0;0;0;0;0
8.2899451064808503;0.0070710678118654866;0;0;0;0;0
8.3015882878101781;0.0077301045336274458;0;0;0;0;0
8.3132314691395042;0.0083146961230254977;0;0;0;0;0
8.324874650468832;0.0088192126434835701;0;0;0;0;0
8.3365178317981581;0.0092387953251128682;0;0;0;0;0
8.3481610131274859;0.0095694033573221187;0;0;0;0;0
8.359804194456812;0.0098078528040322892;0;0;0;0;0
8.3714473757861398;0.0099518472667219724;0;0;0;0;0
8.3830905571154659;0.01;0;0;0;0;0
8.3947337384447938;0.0099518472667219603;0;0;0;0;0
8.4063769197741198;0.0098078528040323222;0;0;0;0;0
8.4180201011034477;0.009569403357322084;0;0;0;0;0
8.4296632824327755;0.0092387953251128214;0;0;0;0;0
8.4413064637621016;0.0088192126434835129;0;0;0;0;0
8.4529496450914294;0.00831469612302543;0;0;0;0;0
8.4645928264207555;0.0077301045336273678;0;0;0;0;0
8.4762360077500833;0.0070710678118654008;0;0;0;0;0
8.4878791890794094;0.006343932841636514;0;0;0;0;0
8.4995223704087373;0.0055557023301959999;0;0;0;0;0
8.5111655517380633;0.0047139673682599862;0;0;0;0;0
8.5228087330673912;0.0038268343236508131;0;0;0;0;0
8.5344519143967172;0.0029028467725447089;0;0;0;0;0
8.5460950957260451;0.0019509032201612689;0;0;0;0;0
8.5577382770553729;0.0009801714032954894;0;0;0;0;0
8.569381458384699;-7.8414533983625913e-17;0;0;0;0;0
8.5810246397140268;-0.00098017140329564531;0;0;0;0;0
8.5926678210433529;-0.0019509032201612834;0;0;0;0;0
8.6043110023726808;-0.0029028467725447232;0;0;0;0;0
8.6159541837020068;-0.0038268343236508265;0;0;0;0;0
8.6275973650313347;-0.0047139673682599992;0;0;0;0;0
8.6392405463606607;-0.0055557023301960121;0;0;0;0;0
8.6508837276899886;-0.0063439328416365253;0;0;0;0;0
8.6625269090193147;-0.0070710678118654112;0;0;0;0;0
8.6741700903486425;-0.0077301045336273782;0;0;0;0;0
8.6858132716779703;-0.0083146961230255167;0;0;0;0;0
8.6974564530072964;-0.0088192126434835857;0;0;0;0;0
8.7090996343366243;-0.0092387953251128821;0;0;0;0;0
8.7207428156659503;-0.0095694033573220892;0;0;0;0;0
8.7323859969952782;-0.0098078528040323239;0;0;0;0;0
8.7440291783246042;-0.009951847266721962;0;0;0;0;0
8.7556723596539321;-0.01;0;0;0;0;0
8.7673155409832582;-0.0099518472667219707;0;0;0;0;0
8.778958722312586;-0.0098078528040322875;0;0;0;0;0
8.7906019036419121;-0.0095694033573221152;0;0;0;0;0
8.8022450849712399;-0.009238795325112863;0;0;0;0;0
8.8138882663005678;-0.0088192126434834955;0;0;0;0;0
8.8255314476298938;-0.0083146961230254109;0;0;0;0;0
8.8371746289592217;-0.007730104533627347;0;0;0;0;0
8.8488178102885477;-0.0070710678118654771;0;0;0;0;0
8.8604609916178756;-0.006343932841636377;0;0;0;0;0
8.8721041729472017;-0.0055557023301960893;0;0;0;0;0
8.8837473542765295;-0.0047139673682599567;0;0;0;0;0
8.8953905356058556;-0.0038268343236509124;0;0;0;0;0
8.9070337169351834;-0.0029028467725445402;0;0;0;0;0
8.9186768982645095;-0.0019509032201613747;0;0;0;0;0
8.9303200795938373;-0.00098017140329559652;0;0;0;0;0
8.9419632609231634;-2.9391523179536474e-17;0;0;0;0;0
8.9536064422524912;0.00098017140329567957;0;0;0;0;0
8.9652496235818191;0.0019509032201613168;0;0;0;0;0
8.9768928049111452;0.00290284677254462;0;0;0;0;0
8.988535986240473;0.0038268343236509896;0;0;0;0;0
9.0001791675697991;0.0047139673682600296;0;0;0;0;0
9.0118223488991269;0.0055557023301960398;0;0;0;0;0
9.023465530228453;0.006343932841636442;0;0;0;0;0
9.0351087115577808;0.0070710678118655361;0;0;0;0;0
9.0467518928871069;0.0077301045336273088;0;0;0;0;0
9.0583950742164348;0.0083146961230254578;0;0;0;0;0
9.0700382555457608;0.0088192126434835354;0;0;0;0;0
9.0816814368750887;0.009238795325112896;0;0;0;0;0
9.0933246182044165;0.0095694033573220979;0;0;0;0;0
9.1049677995337426;0.0098078528040323031;0;0;0;0;0
9.1166109808630704;0.0099518472667219776;0;0;0;0;0
9.1282541621923965;0.01;0;0;0;0;0
9.1398973435217243;0.0099518472667219672;0;0;0;0;0
9.1515405248510504;0.0098078528040323083;0;0;0;0;0
9.1631837061803783;0.0095694033573220632;0;0;0;0;0
9.1748268875097043;0.0092387953251129046;0;0;0;0;0
9.1864700688390322;0.0088192126434835476;0;0;0;0;0
9.1981132501683582;0.0083146961230254699;0;0;0;0;0
9.2097564314976861;0.0077301045336273244;0;0;0;0;0
9.2213996128270139;0.0070710678118654528;0;0;0;0;0
9.23304279415634;0.0063439328416364602;0;0;0;0;0
9.2446859754856678;0.0055557023301959418;0;0;0;0;0
9.2563291568149939;0.0047139673682599264;0;0;0;0;0
9.2679723381443218;0.0038268343236508807;0;0;0;0;0
9.2796155194736478;0.0029028467725446434;0;0;0;0;0
9.2912587008029757;0.0019509032201612015;0;0;0;0;0
9.3029018821323017;0.00098017140329570386;0;0;0;0;0
9.3145450634616296;-4.9109668093211799e-18;0;0;0;0;0
9.3261882447909557;-0.00098017140329557224;0;0;0;0;0
9.3378314261202835;-0.0019509032201613504;0;0;0;0;0
9.3494746074496113;-0.002902846772544653;0;0;0;0;0
9.3611177887789374;-0.0038268343236508903;0;0;0;0;0
9.3727609701082653;-0.0047139673682600599;0;0;0;0;0
9.3844041514375913;-0.0055557023301960684;0;0;0;0;0
9.3960473327669192;-0.006343932841636468;0;0;0;0;0
9.4076905140962452;-0.0070710678118654606;0;0;0;0;0
9.4193336954255731;-0.0077301045336274216;0;0;0;0;0
9.4309768767548992;-0.0083146961230253971;0;0;0;0;0
9.442620058084227;-0.0088192126434835511;0;0;0;0;0
9.4542632394135531;-0.0092387953251128543;0;0;0;0;0
9.4659064207428809;-0.0095694033573221083;0;0;0;0;0
9.4775496020722088;-0.0098078528040323101;0;0;0;0;0
9.4891927834015348;-0.0099518472667219689;0;0;0;0;0
9.5008359647308627;-0.01;0;0;0;0;0
9.5124791460601887;-0.0099518472667219637;0;0;0;0;0
9.5241223273895166;-0.0098078528040323014;0;0;0;0;0
9.5357655087188427;-0.0095694033573220962;0;0;0;0;0
9.5474086900481705;-0.009238795325112837;0;0;0;0;0
9.5590518713774966;-0.0088192126434835979;0;0;0;0;0
9.5706950527068244;-0.0083146961230254508;0;0;0;0;0
9.5823382340361505;-0.0077301045336273938;0;0;0;0;0
9.5939814153654783;-0.0070710678118654285;0;0;0;0;0
9.6056245966948062;-0.0063439328416364342;0;0;0;0;0
9.6172677780241322;-0.005555702330196032;0;0;0;0;0
9.6289109593534601;-0.004713967368259896;0;0;0;0;0
9.6405541406827862;-0.0038268343236508491;0;0;0;0;0
9.652197322012114;-0.0029028467725446105;0;0;0;0;0
9.6638405033414401;-0.0019509032201613073;0;0;0;0;0
9.6754836846707679;-0.00098017140329552843;0;0;0;0;0
9.687126866000094;3.9213456798178833e-17;0;0;0;0;0
9.6987700473294218;0.00098017140329560628;0;0;0;0;0
9.7104132286587479;0.0019509032201612448;0;0;0;0;0
9.7220564099880757;0.0029028467725446855;0;0;0;0;0
9.7336995913174036;0.0038268343236509219;0;0;0;0;0
9.7453427726467297;0.0047139673682599645;0;0;0;0;0
9.7569859539760575;0.0055557023301960971;0;0;0;0;0
9.7686291353053836;0.0063439328416364949;0;0;0;0;0
9.7802723166347114;0.007071067811865484;0;0;0;0;0
9.7919154979640375;0.0077301045336273522;0;0;0;0;0
9.8035586792933653;0.0083146961230254942;0;0;0;0;0
9.8152018606226914;0.0088192126434835684;0;0;0;0;0
9.8268450419520192;0.0092387953251128682;0;0;0;0;0
9.8384882232813453;0.0095694033573220771;0;0;0;0;0
9.8501314046106732;0.009807852804032317;0;0;0;0;0
9.861774585940001;0.0099518472667219724;0;0;0;0;0
9.8734177672693271;0.01;0;0;0;0;0
9.8850609485986549;0.0099518472667219603;0;0;0;0;0
9.896704129927981;0.0098078528040322945;0;0;0;0;0
9.9083473112573088;0.0095694033573220857;0;0;0;0;0
9.9199904925866349;0.0092387953251128786;0;0;0;0;0
9.9316336739159627;0.0088192126434835146;0;0;0;0;0
9.9432768552452888;0.0083146961230254317;0;0;0;0;0
9.9549200365746167;0.0077301045336273713;0;0;0;0;0
9.9665632179039427;0.0070710678118655048;0;0;0;0;0
9.9782063992332706;0.0063439328416364073;0;0;0;0;0
9.9898495805625984;0.0055557023301958854;0;0;0;0;0
10.001492761891924;0.0047139673682599905;0;0;0;0;0
10.013135943221252;0.0038268343236508174;0;0;0;0;0
10.024779124550578;0.0029028467725445779;0;0;0;0;0
10.036422305879906;0.0019509032201612737;0;0;0;0;0
10.048065487209232;0.00098017140329563555;0;0;0;0;0
10.05970866853856;-7.3515946787036487e-17;0;0;0;0;0
10.071351849867886;-0.00098017140329564054;0;0;0;0;0
10.082995031197214;-0.0019509032201612787;0;0;0;0;0
10.09463821252654;-0.0029028467725445823;0;0;0;0;0
10.106281393855868;-0.0038268343236509536;0;0;0;0;0
10.117924575185196;-0.0047139673682601206;0;0;0;0;0
10.129567756514522;-0.0055557023301960077;0;0;0;0;0
10.14121093784385;-0.0063439328416365218;0;0;0;0;0
10.152854119173176;-0.0070710678118655083;0;0;0;0;0
10.164497300502504;-0.0077301045336273747;0;0;0;0;0
10.17614048183183;-0.0083146961230254352;0;0;0;0;0
10.187783663161158;-0.008819212643483584;0;0;0;0;0
10.199426844490484;-0.0092387953251128804;0;0;0;0;0
10.211070025819811;-0.0095694033573220875;0;0;0;0;0
10.222713207149138;-0.0098078528040322962;0;0;0;0;0
10.234356388478465;-0.0099518472667219759;0;0;0;0;0
10.245999569807793;-0.01;0;0;0;0;0
10.257642751137119;-0.0099518472667219707;0;0;0;0;0
10.269285932466447;-0.0098078528040322875;0;0;0;0;0
10.280929113795773;-0.0095694033573220771;0;0;0;0;0
10.292572295125101;-0.0092387953251128647;0;0;0;0;0
10.304215476454427;-0.0088192126434835667;0;0;0;0;0
10.315858657783755;-0.0083146961230254144;0;0;0;0;0
10.327501839113081;-0.0077301045336273504;0;0;0;0;0
10.339145020442409;-0.0070710678118654805;0;0;0;0;0
