#Time;LinearAccX;LinearAccY;LinearAccZ;AngularAccX;AngularAccY;AngularAccZ
0;0;0;0;0;0;0
0.056352997633942858;0.00098017140329560606;0;0;0;0;0
0.11270599526788572;0.0019509032201612826;0;0;0;0;0
0.16905899290182858;0.0029028467725446235;0;0;0;0;0
0.22541199053577143;0.0038268343236508981;0;0;0;0;0
0.28176498816971429;0.0047139673682599767;0;0;0;0;0
0.33811798580365715;0.0055557023301960216;0;0;0;0;0
0.39447098343760001;0.006343932841636455;0;0;0;0;0
0.45082398107154287;0.0070710678118654745;0;0;0;0;0
0.50717697870548573;0.0077301045336273704;0;0;0;0;0
0.56352997633942858;0.0083146961230254526;0;0;0;0;0
0.61988297397337144;0.0088192126434835511;0;0;0;0;0
0.6762359716073143;0.0092387953251128682;0;0;0;0;0
0.73258896924125716;0.0095694033573220892;0;0;0;0;0
0.78894196687520002;0.0098078528040323049;0;0;0;0;0
0.84529496450914288;0.0099518472667219689;0;0;0;0;0
0.90164796214308573;0.01;0;0;0;0;0
0.95800095977702859;0.0099518472667219689;0;0;0;0;0
1.0143539574109715;0.0098078528040323049;0;0;0;0;0
1.0707069550449142;0.0095694033573220892;0;0;0;0;0
1.1270599526788572;0.0092387953251128682;0;0;0;0;0
1.1834129503128001;0.0088192126434835511;0;0;0;0;0
1.2397659479467429;0.0083146961230254508;0;0;0;0;0
1.2961189455806856;0.0077301045336273713;0;0;0;0;0
1.3524719432146286;0.0070710678118654762;0;0;0;0;0
1.4088249408485716;0.006343932841636455;0;0;0;0;0
1.4651779384825143;0.0055557023301960216;0;0;0;0;0
1.5215309361164571;0.0047139673682599784;0;0;0;0;0
1.5778839337504;0.0038268343236508989;0;0;0;0;0
1.634236931384343;0.0029028467725446239;0;0;0;0;0
1.6905899290182858;0.0019509032201612817;0;0;0;0;0
1.7469429266522285;0.00098017140329560823;0;0;0;0;0
1.8032959242861715;1.2246467991473532e-18;0;0;0;0;0
1.8596489219201144;-0.00098017140329560585;0;0;0;0;0
1.9160019195540572;-0.0019509032201612837;0;0;0;0;0
1.9723549171879999;-0.0029028467725446213;0;0;0;0;0
2.0287079148219429;-0.0038268343236508968;0;0;0;0;0
2.0850609124558859;-0.0047139673682599767;0;0;0;0;0
2.1414139100898284;-0.0055557023301960199;0;0;0;0;0
2.1977669077237714;-0.0063439328416364524;0;0;0;0;0
2.2541199053577143;-0.0070710678118654745;0;0;0;0;0
2.3104729029916573;-0.0077301045336273721;0;0;0;0;0
2.3668259006256003;-0.0083146961230254526;0;0;0;0;0
2.4231788982595428;-0.0088192126434835493;0;0;0;0;0
2.4795318958934858;-0.0092387953251128682;0;0;0;0;0
2.5358848935274287;-0.0095694033573220892;0;0;0;0;0
2.5922378911613713;-0.0098078528040323031;0;0;0;0;0
2.6485908887953142;-0.0099518472667219689;0;0;0;0;0
2.7049438864292572;-0.01;0;0;0;0;0
2.7612968840632002;-0.0099518472667219689;0;0;0;0;0
2.8176498816971431;-0.0098078528040323049;0;0;0;0;0
2.8740028793310857;-0.0095694033573220892;0;0;0;0;0
2.9303558769650286;-0.0092387953251128665;0;0;0;0;0
2.9867088745989716;-0.0088192126434835511;0;0;0;0;0
3.0430618722329141;-0.0083146961230254543;0;0;0;0;0
3.0994148698668571;-0.0077301045336273687;0;0;0;0;0
3.1557678675008001;-0.0070710678118654771;0;0;0;0;0
3.212120865134743;-0.0063439328416364524;0;0;0;0;0
3.268473862768686;-0.0055557023301960216;0;0;0;0;0
3.3248268604026285;-0.0047139673682599793;0;0;0;0;0
3.3811798580365715;-0.0038268343236508959;0;0;0;0;0
3.4375328556705145;-0.0029028467725446252;0;0;0;0;0
3.493885853304457;-0.0019509032201612873;0;0;0;0;0
3.5502388509384;-0.00098017140329560498;0;0;0;0;0
3.6065918485723429;-2.4492935982947064e-18;0;0;0;0;0
3.6629448462062859;0.0009801714032956091;0;0;0;0;0
3.7192978438402289;0.0019509032201612826;0;0;0;0;0
3.7756508414741714;0.00290284677254462;0;0;0;0;0
3.8320038391081144;0.0038268343236508994;0;0;0;0;0
3.8883568367420573;0.0047139673682599758;0;0;0;0;0
3.9447098343759999;0.0055557023301960181;0;0;0;0;0
4.0010628320099428;0.0063439328416364559;0;0;0;0;0
4.0574158296438858;0.0070710678118654736;0;0;0;0;0
4.1137688272778288;0.0077301045336273713;0;0;0;0;0
4.1701218249117717;0.0083146961230254526;0;0;0;0;0
4.2264748225457147;0.0088192126434835528;0;0;0;0;0
4.2828278201796568;0.0092387953251128647;0;0;0;0;0
4.3391808178135998;0.0095694033573220857;0;0;0;0;0
4.3955338154475427;0.0098078528040323031;0;0;0;0;0
4.4518868130814857;0.0099518472667219689;0;0;0;0;0
4.5082398107154287;0.01;0;0;0;0;0
4.5645928083493716;0.0099518472667219689;0;0;0;0;0
4.6209458059833146;0.0098078528040323031;0;0;0;0;0
4.6772988036172576;0.0095694033573220875;0;0;0;0;0
4.7336518012512006;0.0092387953251128682;0;0;0;0;0
4.7900047988851426;0.0088192126434835511;0;0;0;0;0
4.8463577965190856;0.008314696123025456;0;0;0;0;0
4.9027107941530286;0.0077301045336273756;0;0;0;0;0
4.9590637917869715;0.007071067811865471;0;0;0;0;0
5.0154167894209145;0.0063439328416364541;0;0;0;0;0
5.0717697870548575;0.0055557023301960233;0;0;0;0;0
5.1281227846888005;0.0047139673682599801;0;0;0;0;0
5.1844757823227425;0.003826834323650905;0;0;0;0;0
5.2408287799566855;0.0029028467725446343;0;0;0;0;0
5.2971817775906285;0.0019509032201612798;0;0;0;0;0
5.3535347752245714;0.00098017140329560628;0;0;0;0;0
5.4098877728585144;3.6739403974420592e-18;0;0;0;0;0
5.4662407704924574;-0.00098017140329559891;0;0;0;0;0
5.5225937681264003;-0.0019509032201612899;0;0;0;0;0
5.5789467657603433;-0.0029028467725446278;0;0;0;0;0
5.6352997633942863;-0.0038268343236508985;0;0;0;0;0
5.6916527610282284;-0.0047139673682599741;0;0;0;0;0
5.7480057586621713;-0.0055557023301960173;0;0;0;0;0
5.8043587562961143;-0.0063439328416364472;0;0;0;0;0
5.8607117539300573;-0.0070710678118654788;0;0;0;0;0
5.9170647515640002;-0.0077301045336273713;0;0;0;0;0
5.9734177491979432;-0.0083146961230254508;0;0;0;0;0
6.0297707468318862;-0.0088192126434835493;0;0;0;0;0
6.0861237444658283;-0.0092387953251128647;0;0;0;0;0
6.1424767420997712;-0.0095694033573220857;0;0;0;0;0
6.1988297397337142;-0.0098078528040323049;0;0;0;0;0
6.2551827373676572;-0.0099518472667219689;0;0;0;0;0
6.3115357350016001;-0.01;0;0;0;0;0
6.3678887326355431;-0.0099518472667219689;0;0;0;0;0
6.4242417302694861;-0.0098078528040323031;0;0;0;0;0
6.4805947279034291;-0.0095694033573220875;0;0;0;0;0
6.536947725537372;-0.0092387953251128682;0;0;0;0;0
6.5933007231713141;-0.0088192126434835511;0;0;0;0;0
6.6496537208052571;-0.008314696123025456;0;0;0;0;0
6.7060067184392;-0.0077301045336273756;0;0;0;0;0
6.762359716073143;-0.0070710678118654727;0;0;0;0;0
6.818712713707086;-0.0063439328416364541;0;0;0;0;0
6.875065711341029;-0.0055557023301960242;0;0;0;0;0
6.9314187089749719;-0.0047139673682599663;0;0;0;0;0
6.987771706608914;-0.0038268343236509063;0;0;0;0;0
7.044124704242857;-0.0029028467725446356;0;0;0;0;0
7.1004777018767999;-0.0019509032201612808;0;0;0;0;0
7.1568306995107429;-0.00098017140329560758;0;0;0;0;0
7.2131836971446859;-4.8985871965894128e-18;0;0;0;0;0
7.2695366947786288;0.00098017140329559782;0;0;0;0;0
7.3258896924125718;0.0019509032201612886;0;0;0;0;0
7.3822426900465148;0.0029028467725446261;0;0;0;0;0
7.4385956876804578;0.0038268343236508972;0;0;0;0;0
7.4949486853143998;0.0047139673682599732;0;0;0;0;0
7.5513016829483428;0.0055557023301960164;0;0;0;0;0
7.6076546805822858;0.0063439328416364472;0;0;0;0;0
7.6640076782162287;0.0070710678118654779;0;0;0;0;0
7.7203606758501717;0.0077301045336273704;0;0;0;0;0
7.7767136734841147;0.0083146961230254508;0;0;0;0;0
7.8330666711180577;0.0088192126434835563;0;0;0;0;0
7.8894196687519997;0.0092387953251128647;0;0;0;0;0
7.9457726663859427;0.0095694033573220857;0;0;0;0;0
8.0021256640198857;0.0098078528040323049;0;0;0;0;0
8.0584786616538295;0.0099518472667219707;0;0;0;0;0
8.1148316592877716;0.01;0;0;0;0;0
8.1711846569217137;0.0099518472667219689;0;0;0;0;0
8.2275376545556576;0.0098078528040323031;0;0;0;0;0
8.2838906521895996;0.0095694033573220927;0;0;0;0;0
8.3402436498235435;0.0092387953251128682;0;0;0;0;0
8.3965966474574856;0.0088192126434835528;0;0;0;0;0
8.4529496450914294;0.0083146961230254474;0;0;0;0;0
8.5093026427253715;0.0077301045336273765;0;0;0;0;0
8.5656556403593136;0.0070710678118654858;0;0;0;0;0
8.6220086379932575;0.006343932841636455;0;0;0;0;0
8.6783616356271995;0.0055557023301960398;0;0;0;0;0
8.7347146332611434;0.0047139673682599671;0;0;0;0;0
8.7910676308950855;0.0038268343236509072;0;0;0;0;0
8.8474206285290293;0.00290284677254462;0;0;0;0;0
8.9037736261629714;0.0019509032201612821;0;0;0;0;0
8.9601266237969153;0.0009801714032955911;0;0;0;0;0
9.0164796214308573;6.1232339957367663e-18;0;0;0;0;0
9.0728326190647994;-0.00098017140329559652;0;0;0;0;0
9.1291856166987433;-0.0019509032201612876;0;0;0;0;0
9.1855386143326854;-0.0029028467725446083;0;0;0;0;0
9.2418916119666292;-0.0038268343236509124;0;0;0;0;0
9.2982446096005713;-0.0047139673682599567;0;0;0;0;0
9.3545976072345152;-0.0055557023301960294;0;0;0;0;0
9.4109506048684572;-0.0063439328416364594;0;0;0;0;0
9.4673036025024011;-0.0070710678118654771;0;0;0;0;0
9.5236566001363432;-0.0077301045336273687;0;0;0;0;0
9.5800095977702853;-0.0083146961230254508;0;0;0;0;0
9.6363625954042291;-0.0088192126434835476;0;0;0;0;0
9.6927155930381712;-0.009238795325112863;0;0;0;0;0
9.7490685906721151;-0.0095694033573220944;0;0;0;0;0
9.8054215883060571;-0.0098078528040323014;0;0;0;0;0
9.861774585940001;-0.0099518472667219707;0;0;0;0;0
9.9181275835739431;-0.01;0;0;0;0;0
9.9744805812078852;-0.0099518472667219724;0;0;0;0;0
10.030833578841829;-0.0098078528040323031;0;0;0;0;0
10.087186576475771;-0.0095694033573220892;0;0;0;0;0
10.143539574109715;-0.0092387953251128682;0;0;0;0;0
10.199892571743657;-0.0088192126434835528;0;0;0;0;0
10.256245569377601;-0.0083146961230254578;0;0;0;0;0
10.312598567011543;-0.0077301045336273782;0;0;0;0;0
10.368951564645485;-0.0070710678118654866;0;0;0;0;0
10.425304562279429;-0.0063439328416364706;0;0;0;0;0
10.481657559913371;-0.0055557023301960407;0;0;0;0;0
10.538010557547315;-0.004713967368259968;0;0;0;0;0
10.594363555181257;-0.0038268343236508924;0;0;0;0;0
10.650716552815201;-0.0029028467725446213;0;0;0;0;0
10.707069550449143;-0.0019509032201612834;0;0;0;0;0
10.763422548083087;-0.00098017140329560997;0;0;0;0;0
10.819775545717029;-7.3478807948841184e-18;0;0;0;0;0
10.876128543350971;0.00098017140329559544;0;0;0;0;0
10.932481540984915;0.0019509032201612689;0;0;0;0;0
10.988834538618857;0.0029028467725446074;0;0;0;0;0
11.045187536252801;0.0038268343236509111;0;0;0;0;0
11.101540533886743;0.0047139673682599558;0;0;0;0;0
11.157893531520687;0.0055557023301960285;0;0;0;0;0
11.214246529154629;0.0063439328416364585;0;0;0;0;0
11.270599526788573;0.0070710678118654762;0;0;0;0;0
11.326952524422515;0.0077301045336273678;0;0;0;0;0
11.383305522056457;0.0083146961230254491;0;0;0;0;0
11.439658519690401;0.0088192126434835458;0;0;0;0;0
11.496011517324343;0.009238795325112863;0;0;0;0;0
11.552364514958287;0.0095694033573220944;0;0;0;0;0
11.608717512592229;0.0098078528040323014;0;0;0;0;0
11.665070510226172;0.0099518472667219707;0;0;0;0;0
11.721423507860115;0.01;0;0;0;0;0
11.777776505494057;0.0099518472667219724;0;0;0;0;0
11.834129503128;0.0098078528040323049;0;0;0;0;0
11.890482500761943;0.0095694033573220892;0;0;0;0;0
11.946835498395886;0.0092387953251128682;0;0;0;0;0
12.003188496029829;0.0088192126434835545;0;0;0;0;0
12.059541493663772;0.0083146961230254578;0;0;0;0;0
12.115894491297714;0.0077301045336273791;0;0;0;0;0
12.172247488931657;0.0070710678118654866;0;0;0;0;0
12.2286004865656;0.0063439328416364437;0;0;0;0;0
12.284953484199542;0.0055557023301960416;0;0;0;0;0
12.341306481833486;0.0047139673682599697;0;0;0;0;0
12.397659479467428;0.0038268343236508933;0;0;0;0;0
12.454012477101372;0.0029028467725446222;0;0;0;0;0
12.510365474735314;0.0019509032201612845;0;0;0;0;0
12.566718472369258;0.00098017140329561127;0;0;0;0;0
12.6230714700032;8.572527594031472e-18;0;0;0;0;0
12.679424467637142;-0.00098017140329559414;0;0;0;0;0
12.735777465271086;-0.0019509032201612678;0;0;0;0;0
12.792130462905028;-0.0029028467725446057;0;0;0;0;0
12.848483460538972;-0.0038268343236509102;0;0;0;0;0
12.904836458172914;-0.0047139673682599541;0;0;0;0;0
12.961189455806858;-0.0055557023301960277;0;0;0;0;0
13.0175424534408;-0.0063439328416364576;0;0;0;0;0
13.073895451074744;-0.0070710678118654762;0;0;0;0;0
13.130248448708686;-0.0077301045336273678;0;0;0;0;0
13.186601446342628;-0.0083146961230254491;0;0;0;0;0
13.242954443976572;-0.0088192126434835458;0;0;0;0;0
13.299307441610514;-0.009238795325112863;0;0;0;0;0
13.355660439244458;-0.0095694033573220944;0;0;0;0;0
13.4120134368784;-0.0098078528040323014;0;0;0;0;0
13.468366434512344;-0.0099518472667219707;0;0;0;0;0
13.524719432146286;-0.01;0;0;0;0;0
13.581072429780228;-0.0099518472667219724;0;0;0;0;0
13.637425427414172;-0.0098078528040323049;0;0;0;0;0
13.693778425048114;-0.0095694033573220892;0;0;0;0;0
13.750131422682058;-0.00923879532511287;0;0;0;0;0
13.806484420316;-0.0088192126434835545;0;0;0;0;0
13.862837417949944;-0.0083146961230254387;0;0;0;0;0
13.919190415583886;-0.0077301045336273791;0;0;0;0;0
13.975543413217828;-0.0070710678118654884;0;0;0;0;0
14.031896410851772;-0.0063439328416364437;0;0;0;0;0
14.088249408485714;-0.0055557023301960433;0;0;0;0;0
14.144602406119658;-0.0047139673682599706;0;0;0;0;0
14.2009554037536;-0.0038268343236508946;0;0;0;0;0
14.257308401387544;-0.0029028467725446235;0;0;0;0;0
14.313661399021486;-0.0019509032201612858;0;0;0;0;0
14.37001439665543;-0.00098017140329561235;0;0;0;0;0
14.426367394289372;-9.7971743931788255e-18;0;0;0;0;0
14.482720391923314;0.00098017140329559284;0;0;0;0;0
14.539073389557258;0.0019509032201612665;0;0;0;0;0
14.5954263871912;0.0029028467725446044;0;0;0;0;0
14.651779384825144;0.0038268343236509089;0;0;0;0;0
14.708132382459086;0.0047139673682599532;0;0;0;0;0
14.76448538009303;0.0055557023301960277;0;0;0;0;0
14.820838377726972;0.0063439328416364576;0;0;0;0;0
14.877191375360916;0.0070710678118654745;0;0;0;0;0
14.933544372994858;0.0077301045336273669;0;0;0;0;0
14.9898973706288;0.0083146961230254474;0;0;0;0;0
15.046250368262744;0.0088192126434835458;0;0;0;0;0
15.102603365896686;0.0092387953251128613;0;0;0;0;0
15.158956363530629;0.0095694033573220944;0;0;0;0;0
15.215309361164572;0.0098078528040322997;0;0;0;0;0
15.271662358798515;0.0099518472667219707;0;0;0;0;0
15.328015356432457;0.01;0;0;0;0;0
15.3843683540664;0.0099518472667219724;0;0;0;0;0
15.440721351700343;0.0098078528040323049;0;0;0;0;0
15.497074349334286;0.0095694033573220892;0;0;0;0;0
15.553427346968229;0.00923879532511287;0;0;0;0;0
15.609780344602171;0.0088192126434835545;0;0;0;0;0
15.666133342236115;0.0083146961230254404;0;0;0;0;0
15.722486339870057;0.0077301045336273799;0;0;0;0;0
15.778839337503999;0.0070710678118654892;0;0;0;0;0
15.835192335137943;0.0063439328416364446;0;0;0;0;0
15.891545332771885;0.0055557023301960442;0;0;0;0;0
15.947898330405829;0.0047139673682599715;0;0;0;0;0
16.004251328039771;0.0038268343236508959;0;0;0;0;0
16.060604325673715;0.0029028467725446244;0;0;0;0;0
16.116957323307659;0.001950903220161252;0;0;0;0;0
16.173310320941599;0.00098017140329561365;0;0;0;0;0
16.229663318575543;1.1021821192326179e-17;0;0;0;0;0
16.286016316209487;-0.0009801714032956271;0;0;0;0;0
16.342369313843427;-0.0019509032201612652;0;0;0;0;0
16.398722311477371;-0.0029028467725446035;0;0;0;0;0
16.455075309111315;-0.003826834323650908;0;0;0;0;0
16.511428306745259;-0.0047139673682599836;0;0;0;0;0
16.567781304379199;-0.0055557023301959964;0;0;0;0;0
16.624134302013143;-0.0063439328416364559;0;0;0;0;0
16.680487299647087;-0.0070710678118654736;0;0;0;0;0
16.736840297281027;-0.0077301045336273435;0;0;0;0;0
16.793193294914971;-0.0083146961230254474;0;0;0;0;0
16.849546292548915;-0.0088192126434835441;0;0;0;0;0
16.905899290182859;-0.0092387953251128752;0;0;0;0;0
16.962252287816799;-0.0095694033573220823;0;0;0;0;0
17.018605285450743;-0.0098078528040322997;0;0;0;0;0
17.074958283084687;-0.0099518472667219689;0;0;0;0;0
17.131311280718627;-0.01;0;0;0;0;0
17.187664278352571;-0.0099518472667219724;0;0;0;0;0
17.244017275986515;-0.0098078528040323049;0;0;0;0;0
17.300370273620459;-0.0095694033573220788;0;0;0;0;0
17.356723271254399;-0.0092387953251128838;0;0;0;0;0
17.413076268888343;-0.0088192126434835545;0;0;0;0;0
17.469429266522287;-0.0083146961230254404;0;0;0;0;0
17.525782264156231;-0.0077301045336273582;0;0;0;0;0
17.582135261790171;-0.0070710678118654901;0;0;0;0;0
17.638488259424115;-0.0063439328416364463;0;0;0;0;0
17.694841257058059;-0.0055557023301960155;0;0;0;0;0
17.751194254691999;-0.0047139673682600036;0;0;0;0;0
17.807547252325943;-0.0038268343236508968;0;0;0;0;0
17.863900249959887;-0.0029028467725446257;0;0;0;0;0
17.920253247593831;-0.0019509032201612533;0;0;0;0;0
17.976606245227771;-0.00098017140329561495;0;0;0;0;0
18.032959242861715;-1.2246467991473533e-17;0;0;0;0;0
18.089312240495659;0.00098017140329562579;0;0;0;0;0
18.145665238129599;0.0019509032201612641;0;0;0;0;0
18.202018235763543;0.0029028467725446022;0;0;0;0;0
18.258371233397487;0.0038268343236509067;0;0;0;0;0
18.31472423103143;0.0047139673682599819;0;0;0;0;0
18.371077228665371;0.0055557023301959956;0;0;0;0;0
18.427430226299315;0.006343932841636455;0;0;0;0;0
18.483783223933258;0.0070710678118654979;0;0;0;0;0
18.540136221567199;0.007730104533627366;0;0;0;0;0
18.596489219201143;0.0083146961230254265;0;0;0;0;0
18.652842216835086;0.0088192126434835441;0;0;0;0;0
18.70919521446903;0.0092387953251128734;0;0;0;0;0
18.765548212102971;0.0095694033573220823;0;0;0;0;0
18.821901209736914;0.0098078528040323066;0;0;0;0;0
18.878254207370858;0.0099518472667219655;0;0;0;0;0
18.934607205004802;0.01;0;0;0;0;0
