#Time;LinearAccX;LinearAccY;LinearAccZ;AngularAccX;AngularAccY;AngularAccZ
0;0;0;0;0;0;0
0.0094108359815374704;0.00098017140329560606;0;0;0;0;0
0.018821671963074941;0.0019509032201612826;0;0;0;0;0
0.028232507944612413;0.0029028467725446235;0;0;0;0;0
0.037643343926149882;0.0038268343236508981;0;0;0;0;0
0.04705417990768735;0.0047139673682599758;0;0;0;0;0
0.056465015889224826;0.0055557023301960216;0;0;0;0;0
0.065875851870762295;0.006343932841636455;0;0;0;0;0
0.075286687852299763;0.0070710678118654745;0;0;0;0;0
0.084697523833837232;0.0077301045336273687;0;0;0;0;0
0.094108359815374701;0.0083146961230254508;0;0;0;0;0
0.10351919579691217;0.0088192126434835493;0;0;0;0;0
0.11293003177844965;0.0092387953251128682;0;0;0;0;0
0.12234086775998712;0.0095694033573220892;0;0;0;0;0
0.13175170374152459;0.0098078528040323049;0;0;0;0;0
0.14116253972306206;0.0099518472667219689;0;0;0;0;0
0.15057337570459953;0.01;0;0;0;0;0
0.159984211686137;0.0099518472667219689;0;0;0;0;0
0.16939504766767446;0.0098078528040323049;0;0;0;0;0
0.17880588364921193;0.0095694033573220892;0;0;0;0;0
0.1882167196307494;0.0092387953251128682;0;0;0;0;0
0.19762755561228687;0.0088192126434835528;0;0;0;0;0
0.20703839159382434;0.0083146961230254543;0;0;0;0;0
0.21644922757536181;0.0077301045336273713;0;0;0;0;0
0.2258600635568993;0.0070710678118654762;0;0;0;0;0
0.23527089953843677;0.006343932841636455;0;0;0;0;0
0.24468173551997424;0.0055557023301960251;0;0;0;0;0
0.25409257150151171;0.0047139673682599784;0;0;0;0;0
0.26350340748304918;0.0038268343236508989;0;0;0;0;0
0.27291424346458665;0.0029028467725446278;0;0;0;0;0
0.28232507944612412;0.001950903220161286;0;0;0;0;0
0.29173591542766159;0.00098017140329560823;0;0;0;0;0
0.30114675140919905;1.2246467991473532e-18;0;0;0;0;0
0.31055758739073652;-0.00098017140329560151;0;0;0;0;0
0.31996842337227399;-0.0019509032201612791;0;0;0;0;0
0.32937925935381146;-0.0029028467725446213;0;0;0;0;0
0.33879009533534893;-0.0038268343236508924;0;0;0;0;0
0.3482009313168864;-0.0047139673682599723;0;0;0;0;0
0.35761176729842387;-0.0055557023301960199;0;0;0;0;0
0.36702260327996133;-0.0063439328416364498;0;0;0;0;0
0.3764334392614988;-0.007071067811865471;0;0;0;0;0
0.38584427524303627;-0.0077301045336273669;0;0;0;0;0
0.39525511122457374;-0.0083146961230254474;0;0;0;0;0
0.40466594720611121;-0.0088192126434835493;0;0;0;0;0
0.41407678318764868;-0.0092387953251128647;0;0;0;0;0
0.42348761916918615;-0.0095694033573220857;0;0;0;0;0
0.43289845515072362;-0.0098078528040323031;0;0;0;0;0
0.44230929113226108;-0.0099518472667219689;0;0;0;0;0
0.45172012711379861;-0.01;0;0;0;0;0
0.46113096309533608;-0.0099518472667219689;0;0;0;0;0
0.47054179907687355;-0.0098078528040323049;0;0;0;0;0
0.47995263505841101;-0.0095694033573220892;0;0;0;0;0
0.48936347103994848;-0.00923879532511287;0;0;0;0;0
0.49877430702148595;-0.0088192126434835511;0;0;0;0;0
0.50818514300302342;-0.0083146961230254543;0;0;0;0;0
0.51759597898456089;-0.0077301045336273747;0;0;0;0;0
0.52700681496609836;-0.0070710678118654771;0;0;0;0;0
0.53641765094763583;-0.0063439328416364594;0;0;0;0;0
0.5458284869291733;-0.0055557023301960294;0;0;0;0;0
0.55523932291071076;-0.0047139673682599793;0;0;0;0;0
0.56465015889224823;-0.0038268343236509041;0;0;0;0;0
0.5740609948737857;-0.0029028467725446335;0;0;0;0;0
0.58347183085532317;-0.0019509032201612873;0;0;0;0;0
0.59288266683686064;-0.00098017140329561387;0;0;0;0;0
0.60229350281839811;-2.4492935982947064e-18;0;0;0;0;0
0.61170433879993558;0.00098017140329560021;0;0;0;0;0
0.62111517478147305;0.0019509032201612737;0;0;0;0;0
0.63052601076301051;0.00290284677254462;0;0;0;0;0
0.63993684674454798;0.0038268343236508911;0;0;0;0;0
0.64934768272608545;0.004713967368259968;0;0;0;0;0
0.65875851870762292;0.0055557023301960181;0;0;0;0;0
0.66816935468916039;0.0063439328416364481;0;0;0;0;0
0.67758019067069786;0.0070710678118654667;0;0;0;0;0
0.68699102665223533;0.007730104533627366;0;0;0;0;0
0.69640186263377279;0.0083146961230254474;0;0;0;0;0
0.70581269861531026;0.0088192126434835441;0;0;0;0;0
0.71522353459684773;0.0092387953251128647;0;0;0;0;0
0.7246343705783852;0.0095694033573220857;0;0;0;0;0
0.73404520655992267;0.0098078528040323031;0;0;0;0;0
0.74345604254146014;0.0099518472667219689;0;0;0;0;0
0.75286687852299761;0.01;0;0;0;0;0
0.76227771450453508;0.0099518472667219707;0;0;0;0;0
0.77168855048607254;0.0098078528040323066;0;0;0;0;0
0.78109938646761001;0.0095694033573220927;0;0;0;0;0
0.79051022244914748;0.0092387953251128734;0;0;0;0;0
0.79992105843068495;0.0088192126434835597;0;0;0;0;0
0.80933189441222242;0.008314696123025456;0;0;0;0;0
0.81874273039375989;0.0077301045336273756;0;0;0;0;0
0.82815356637529736;0.007071067811865484;0;0;0;0;0
0.83756440235683483;0.0063439328416364672;0;0;0;0;0
0.84697523833837229;0.005555702330196039;0;0;0;0;0
0.85638607431990976;0.0047139673682599966;0;0;0;0;0
0.86579691030144723;0.003826834323650905;0;0;0;0;0
0.8752077462829847;0.0029028467725446343;0;0;0;0;0
0.88461858226452217;0.0019509032201612973;0;0;0;0;0
0.89402941824605964;0.00098017140329562406;0;0;0;0;0
0.90344025422759722;3.6739403974420592e-18;0;0;0;0;0
0.91285109020913469;-0.00098017140329559891;0;0;0;0;0
0.92226192619067215;-0.0019509032201612726;0;0;0;0;0
0.93167276217220962;-0.0029028467725446105;0;0;0;0;0
0.94108359815374709;-0.0038268343236508985;0;0;0;0;0
0.95049443413528456;-0.0047139673682599741;0;0;0;0;0
0.95990527011682203;-0.0055557023301960173;0;0;0;0;0
0.9693161060983595;-0.0063439328416364472;0;0;0;0;0
0.97872694207989697;-0.0070710678118654658;0;0;0;0;0
0.98813777806143444;-0.0077301045336273713;0;0;0;0;0
0.9975486140429719;-0.0083146961230254508;0;0;0;0;0
1.0069594500245094;-0.0088192126434835493;0;0;0;0;0
1.0163702860060468;-0.0092387953251128647;0;0;0;0;0
1.0257811219875843;-0.0095694033573220857;0;0;0;0;0
1.0351919579691218;-0.0098078528040323014;0;0;0;0;0
1.0446027939506592;-0.0099518472667219689;0;0;0;0;0
1.0540136299321967;-0.01;0;0;0;0;0
1.0634244659137342;-0.0099518472667219689;0;0;0;0;0
1.0728353018952717;-0.0098078528040323066;0;0;0;0;0
1.0822461378768091;-0.0095694033573220927;0;0;0;0;0
1.0916569738583466;-0.0092387953251128734;0;0;0;0;0
1.1010678098398841;-0.0088192126434835511;0;0;0;0;0
1.1104786458214215;-0.008314696123025456;0;0;0;0;0
1.119889481802959;-0.0077301045336273756;0;0;0;0;0
1.1293003177844965;-0.0070710678118654849;0;0;0;0;0
1.1387111537660339;-0.006343932841636468;0;0;0;0;0
1.1481219897475714;-0.0055557023301960398;0;0;0;0;0
1.1575328257291089;-0.0047139673682599819;0;0;0;0;0
1.1669436617106463;-0.0038268343236509063;0;0;0;0;0
1.1763544976921838;-0.0029028467725446356;0;0;0;0;0
1.1857653336737213;-0.0019509032201612984;0;0;0;0;0
1.1951761696552587;-0.00098017140329562514;0;0;0;0;0
1.2045870056367962;-4.8985871965894128e-18;0;0;0;0;0
1.2139978416183337;0.00098017140329559782;0;0;0;0;0
1.2234086775998712;0.0019509032201612715;0;0;0;0;0
1.2328195135814086;0.0029028467725446096;0;0;0;0;0
1.2422303495629461;0.0038268343236508807;0;0;0;0;0
1.2516411855444836;0.0047139673682599576;0;0;0;0;0
1.261052021526021;0.0055557023301960164;0;0;0;0;0
1.2704628575075585;0.0063439328416364472;0;0;0;0;0
1.279873693489096;0.0070710678118654658;0;0;0;0;0
1.2892845294706334;0.0077301045336273591;0;0;0;0;0
1.2986953654521709;0.0083146961230254422;0;0;0;0;0
1.3081062014337084;0.0088192126434835389;0;0;0;0;0
1.3175170374152458;0.0092387953251128647;0;0;0;0;0
1.3269278733967833;0.0095694033573220857;0;0;0;0;0
1.3363387093783208;0.0098078528040323014;0;0;0;0;0
1.3457495453598582;0.0099518472667219672;0;0;0;0;0
1.3551603813413957;0.01;0;0;0;0;0
1.3645712173229332;0.0099518472667219724;0;0;0;0;0
1.3739820533044707;0.0098078528040323066;0;0;0;0;0
1.3833928892860081;0.0095694033573220927;0;0;0;0;0
1.3928037252675456;0.0092387953251128752;0;0;0;0;0
1.4022145612490831;0.0088192126434835615;0;0;0;0;0
1.4116253972306205;0.0083146961230254664;0;0;0;0;0
1.421036233212158;0.0077301045336273765;0;0;0;0;0
1.4304470691936955;0.0070710678118654858;0;0;0;0;0
1.4398579051752329;0.0063439328416364698;0;0;0;0;0
1.4492687411567704;0.0055557023301960398;0;0;0;0;0
1.4586795771383079;0.0047139673682599983;0;0;0;0;0
1.4680904131198453;0.0038268343236509241;0;0;0;0;0
1.4775012491013828;0.0029028467725446365;0;0;0;0;0
1.4869120850829203;0.0019509032201612995;0;0;0;0;0
1.4963229210644577;0.00098017140329562645;0;0;0;0;0
1.5057337570459952;2.388680238973927e-17;0;0;0;0;0
1.5151445930275327;-0.00098017140329557896;0;0;0;0;0
1.5245554290090702;-0.0019509032201612527;0;0;0;0;0
1.5339662649906076;-0.0029028467725446083;0;0;0;0;0
1.5433771009721451;-0.0038268343236508794;0;0;0;0;0
1.5527879369536826;-0.0047139673682599567;0;0;0;0;0
1.56219877293522;-0.0055557023301960008;0;0;0;0;0
1.5716096089167575;-0.0063439328416364316;0;0;0;0;0
1.581020444898295;-0.0070710678118654528;0;0;0;0;0
1.5904312808798324;-0.007730104533627347;0;0;0;0;0
1.5998421168613699;-0.00831469612302543;0;0;0;0;0
1.6092529528429074;-0.0088192126434835476;0;0;0;0;0
1.6186637888244448;-0.009238795325112863;0;0;0;0;0
1.6280746248059823;-0.0095694033573220857;0;0;0;0;0
1.6374854607875198;-0.0098078528040323014;0;0;0;0;0
1.6468962967690572;-0.0099518472667219672;0;0;0;0;0
1.6563071327505947;-0.01;0;0;0;0;0
1.6657179687321322;-0.0099518472667219724;0;0;0;0;0
1.6751288047136697;-0.0098078528040323118;0;0;0;0;0
1.6845396406952071;-0.0095694033573220979;0;0;0;0;0
1.6939504766767446;-0.0092387953251128821;0;0;0;0;0
1.7033613126582821;-0.0088192126434835701;0;0;0;0;0
1.7127721486398195;-0.0083146961230254769;0;0;0;0;0
1.722182984621357;-0.0077301045336273782;0;0;0;0;0
1.7315938206028945;-0.0070710678118654866;0;0;0;0;0
1.7410046565844319;-0.0063439328416364706;0;0;0;0;0
1.7504154925659694;-0.0055557023301960407;0;0;0;0;0
1.7598263285475069;-0.0047139673682599992;0;0;0;0;0
1.7692371645290443;-0.0038268343236509249;0;0;0;0;0
1.7786480005105818;-0.0029028467725446551;0;0;0;0;0
1.7880588364921193;-0.0019509032201613181;0;0;0;0;0
1.7974696724736567;-0.00098017140329564531;0;0;0;0;0
1.8068805084551944;-7.3478807948841184e-18;0;0;0;0;0
1.8162913444367319;0.00098017140329559544;0;0;0;0;0
1.8257021804182694;0.0019509032201612689;0;0;0;0;0
1.8351130163998068;0.0029028467725446074;0;0;0;0;0
1.8445238523813443;0.0038268343236508785;0;0;0;0;0
1.8539346883628818;0.0047139673682599558;0;0;0;0;0
1.8633455243444192;0.0055557023301959999;0;0;0;0;0
1.8727563603259567;0.0063439328416364585;0;0;0;0;0
1.8821671963074942;0.0070710678118654762;0;0;0;0;0
1.8915780322890317;0.0077301045336273678;0;0;0;0;0
1.9009888682705691;0.0083146961230254491;0;0;0;0;0
1.9103997042521066;0.0088192126434835458;0;0;0;0;0
1.9198105402336441;0.009238795325112863;0;0;0;0;0
1.9292213762151815;0.009569403357322084;0;0;0;0;0
1.938632212196719;0.0098078528040323014;0;0;0;0;0
1.9480430481782565;0.0099518472667219672;0;0;0;0;0
1.9574538841597939;0.01;0;0;0;0;0
1.9668647201413314;0.0099518472667219724;0;0;0;0;0
1.9762755561228689;0.0098078528040323049;0;0;0;0;0
1.9856863921044063;0.0095694033573220892;0;0;0;0;0
1.9950972280859438;0.0092387953251128682;0;0;0;0;0
2.0045080640674811;0.0088192126434835701;0;0;0;0;0
2.0139189000490187;0.0083146961230254578;0;0;0;0;0
2.023329736030556;0.0077301045336274016;0;0;0;0;0
2.0327405720120937;0.0070710678118654866;0;0;0;0;0
2.0421514079936309;0.0063439328416364984;0;0;0;0;0
2.0515622439751686;0.0055557023301960416;0;0;0;0;0
2.0609730799567059;0.0047139673682600001;0;0;0;0;0
2.0703839159382436;0.0038268343236509262;0;0;0;0;0
2.0797947519197808;0.002902846772544656;0;0;0;0;0
2.0892055879013185;0.0019509032201612845;0;0;0;0;0
2.0986164238828557;0.00098017140329564661;0;0;0;0;0
2.1080272598643934;8.572527594031472e-18;0;0;0;0;0
2.1174380958459307;-0.00098017140329555879;0;0;0;0;0
2.1268489318274684;-0.0019509032201612678;0;0;0;0;0
2.1362597678090056;-0.0029028467725445719;0;0;0;0;0
2.1456706037905433;-0.0038268343236508772;0;0;0;0;0
2.1550814397720806;-0.0047139673682599541;0;0;0;0;0
2.1644922757536182;-0.0055557023301959982;0;0;0;0;0
2.1739031117351555;-0.0063439328416364307;0;0;0;0;0
2.1833139477166932;-0.0070710678118654502;0;0;0;0;0
2.1927247836982304;-0.0077301045336273444;0;0;0;0;0
2.2021356196797681;-0.0083146961230254491;0;0;0;0;0
2.2115464556613054;-0.0088192126434835285;0;0;0;0;0
2.2209572916428431;-0.009238795325112863;0;0;0;0;0
2.2303681276243803;-0.0095694033573220736;0;0;0;0;0
2.239778963605918;-0.0098078528040323014;0;0;0;0;0
2.2491897995874552;-0.009951847266721962;0;0;0;0;0
2.2586006355689929;-0.01;0;0;0;0;0
2.2680114715505302;-0.0099518472667219724;0;0;0;0;0
2.2774223075320679;-0.0098078528040323118;0;0;0;0;0
2.2868331435136051;-0.0095694033573220996;0;0;0;0;0
2.2962439794951428;-0.0092387953251128838;0;0;0;0;0
2.3056548154766801;-0.0088192126434835701;0;0;0;0;0
2.3150656514582177;-0.0083146961230254595;0;0;0;0;0
2.324476487439755;-0.0077301045336274025;0;0;0;0;0
2.3338873234212927;-0.0070710678118654884;0;0;0;0;0
2.3432981594028299;-0.0063439328416364993;0;0;0;0;0
2.3527089953843676;-0.0055557023301960433;0;0;0;0;0
2.3621198313659049;-0.004713967368260033;0;0;0;0;0
2.3715306673474426;-0.0038268343236509271;0;0;0;0;0
2.3809415033289798;-0.0029028467725446573;0;0;0;0;0
2.3903523393105175;-0.0019509032201613205;0;0;0;0;0
2.3997631752920547;-0.00098017140329564791;0;0;0;0;0
2.4091740112735924;-9.7971743931788255e-18;0;0;0;0;0
2.4185848472551301;0.00098017140329559284;0;0;0;0;0
2.4279956832366674;0.0019509032201612665;0;0;0;0;0
2.4374065192182051;0.0029028467725446044;0;0;0;0;0
2.4468173551997423;0.0038268343236508764;0;0;0;0;0
2.45622819118128;0.0047139673682599845;0;0;0;0;0
2.4656390271628172;0.0055557023301959973;0;0;0;0;0
2.4750498631443549;0.0063439328416364576;0;0;0;0;0
2.4844606991258922;0.0070710678118654493;0;0;0;0;0
2.4938715351074299;0.0077301045336273669;0;0;0;0;0
2.5032823710889671;0.0083146961230254283;0;0;0;0;0
2.5126932070705048;0.0088192126434835458;0;0;0;0;0
2.5221040430520421;0.0092387953251128613;0;0;0;0;0
2.5315148790335797;0.009569403357322084;0;0;0;0;0
2.540925715015117;0.0098078528040322997;0;0;0;0;0
2.5503365509966547;0.0099518472667219655;0;0;0;0;0
2.5597473869781919;0.01;0;0;0;0;0
2.5691582229597296;0.0099518472667219689;0;0;0;0;0
2.5785690589412669;0.0098078528040323118;0;0;0;0;0
2.5879798949228046;0.0095694033573220892;0;0;0;0;0
2.5973907309043418;0.0092387953251128838;0;0;0;0;0
2.6068015668858795;0.0088192126434835545;0;0;0;0;0
2.6162124028674167;0.0083146961230254786;0;0;0;0;0
2.6256232388489544;0.0077301045336273799;0;0;0;0;0
2.6350340748304917;0.0070710678118654892;0;0;0;0;0
2.6444449108120294;0.0063439328416364724;0;0;0;0;0
2.6538557467935666;0.0055557023301960442;0;0;0;0;0
2.6632665827751043;0.0047139673682599715;0;0;0;0;0
2.6726774187566416;0.0038268343236509284;0;0;0;0;0
2.6820882547381792;0.0029028467725446244;0;0;0;0;0
2.6914990907197165;0.0019509032201613216;0;0;0;0;0
2.7009099267012542;0.00098017140329561365;0;0;0;0;0
2.7103207626827914;4.6548957980331189e-17;0;0;0;0;0
2.7197315986643291;-0.00098017140329559175;0;0;0;0;0
2.7291424346458664;-0.0019509032201612303;0;0;0;0;0
2.7385532706274041;-0.0029028467725446035;0;0;0;0;0
2.7479641066089413;-0.0038268343236508751;0;0;0;0;0
2.757374942590479;-0.0047139673682599524;0;0;0;0;0
2.7667857785720162;-0.0055557023301959964;0;0;0;0;0
2.7761966145535539;-0.0063439328416364559;0;0;0;0;0
2.7856074505350912;-0.0070710678118654485;0;0;0;0;0
2.7950182865166289;-0.007730104533627366;0;0;0;0;0
2.8044291224981661;-0.0083146961230254283;0;0;0;0;0
2.8138399584797038;-0.0088192126434835441;0;0;0;0;0
2.8232507944612411;-0.0092387953251128474;0;0;0;0;0
2.8326616304427787;-0.0095694033573220823;0;0;0;0;0
2.842072466424316;-0.0098078528040322997;0;0;0;0;0
2.8514833024058537;-0.0099518472667219655;0;0;0;0;0
2.8608941383873909;-0.01;0;0;0;0;0
2.8703049743689286;-0.0099518472667219724;0;0;0;0;0
2.8797158103504659;-0.0098078528040323118;0;0;0;0;0
2.8891266463320036;-0.0095694033573220892;0;0;0;0;0
2.8985374823135408;-0.0092387953251128838;0;0;0;0;0
2.9079483182950785;-0.0088192126434835545;0;0;0;0;0
2.9173591542766157;-0.0083146961230254803;0;0;0;0;0
2.9267699902581534;-0.0077301045336273808;0;0;0;0;0
2.9361808262396907;-0.0070710678118655144;0;0;0;0;0
2.9455916622212284;-0.0063439328416364741;0;0;0;0;0
2.9550024982027656;-0.005555702330196045;0;0;0;0;0
2.9644133341843033;-0.0047139673682600036;0;0;0;0;0
2.9738241701658406;-0.0038268343236509297;0;0;0;0;0
2.9832350061473782;-0.0029028467725446599;0;0;0;0;0
2.9926458421289155;-0.0019509032201613231;0;0;0;0;0
3.0020566781104532;-0.00098017140329561495;0;0;0;0;0
3.0114675140919904;-4.777360477947854e-17;0;0;0;0;0
3.0208783500735281;0.00098017140329559045;0;0;0;0;0
3.0302891860550654;0.0019509032201612292;0;0;0;0;0
3.0397000220366031;0.0029028467725446022;0;0;0;0;0
3.0491108580181403;0.0038268343236508412;0;0;0;0;0
3.058521693999678;0.0047139673682599506;0;0;0;0;0
3.0679325299812152;0.0055557023301959956;0;0;0;0;0
3.0773433659627529;0.006343932841636455;0;0;0;0;0
3.0867542019442902;0.0070710678118654485;0;0;0;0;0
3.0961650379258279;0.007730104533627366;0;0;0;0;0
3.1055758739073651;0.0083146961230254265;0;0;0;0;0
3.1149867098889028;0.0088192126434835441;0;0;0;0;0
3.1243975458704401;0.0092387953251128474;0;0;0;0;0
3.1338083818519777;0.0095694033573220823;0;0;0;0;0
3.143219217833515;0.0098078528040322927;0;0;0;0;0
3.1526300538150527;0.0099518472667219655;0;0;0;0;0
3.1620408897965899;0.01;0;0;0;0;0
3.1714517257781276;0.0099518472667219724;0;0;0;0;0
3.1808625617596649;0.0098078528040323187;0;0;0;0;0
3.1902733977412026;0.0095694033573221014;0;0;0;0;0
3.1996842337227398;0.0092387953251128994;0;0;0;0;0
3.2090950697042775;0.0088192126434835736;0;0;0;0;0
3.2185059056858147;0.0083146961230254612;0;0;0;0;0
3.2279167416673524;0.0077301045336274042;0;0;0;0;0
3.2373275776488897;0.0070710678118654918;0;0;0;0;0
3.2467384136304274;0.0063439328416365027;0;0;0;0;0
3.2561492496119646;0.0055557023301960459;0;0;0;0;0
3.2655600855935023;0.0047139673682599741;0;0;0;0;0
3.2749709215750396;0.0038268343236509306;0;0;0;0;0
3.2843817575565772;0.0029028467725446265;0;0;0;0;0
3.2937925935381145;0.0019509032201613242;0;0;0;0;0
3.3032034295196522;0.00098017140329561604;0;0;0;0;0
3.3126142655011894;4.899825157862589e-17;0;0;0;0;0
3.3220251014827271;-0.00098017140329558937;0;0;0;0;0
3.3314359374642644;-0.0019509032201612281;0;0;0;0;0
3.3408467734458021;-0.0029028467725446014;0;0;0;0;0
3.3502576094273393;-0.0038268343236508404;0;0;0;0;0
3.359668445408877;-0.0047139673682599498;0;0;0;0;0
3.3690792813904142;-0.0055557023301959652;0;0;0;0;0
3.3784901173719519;-0.0063439328416364264;0;0;0;0;0
3.3879009533534892;-0.0070710678118654216;0;0;0;0;0
3.3973117893350269;-0.0077301045336273426;0;0;0;0;0
3.4067226253165641;-0.0083146961230254075;0;0;0;0;0
3.4161334612981018;-0.0088192126434835268;0;0;0;0;0
3.425544297279639;-0.0092387953251128335;0;0;0;0;0
3.4349551332611767;-0.0095694033573220719;0;0;0;0;0
3.444365969242714;-0.0098078528040322997;0;0;0;0;0
3.4537768052242517;-0.009951847266721962;0;0;0;0;0
3.4631876412057889;-0.01;0;0;0;0;0
3.4725984771873266;-0.0099518472667219759;0;0;0;0;0
3.4820093131688639;-0.0098078528040323118;0;0;0;0;0
3.4914201491504016;-0.0095694033573220909;0;0;0;0;0
3.5008309851319388;-0.0092387953251128856;0;0;0;0;0
3.5102418211134765;-0.0088192126434835563;0;0;0;0;0
3.5196526570950137;-0.0083146961230254821;0;0;0;0;0
3.5290634930765514;-0.0077301045336273825;0;0;0;0;0
3.5384743290580887;-0.007071067811865517;0;0;0;0;0
3.5478851650396264;-0.0063439328416364758;0;0;0;0;0
3.5572960010211636;-0.0055557023301960771;0;0;0;0;0
3.5667068370027013;-0.0047139673682600062;0;0;0;0;0
3.5761176729842385;-0.0038268343236509644;0;0;0;0;0
3.5855285089657762;-0.0029028467725446621;0;0;0;0;0
3.5949393449473135;-0.0019509032201613602;0;0;0;0;0
3.6043501809288512;-0.00098017140329565268;0;0;0;0;0
3.6137610169103889;-1.4695761589768237e-17;0;0;0;0;0
3.6231718528919261;0.00098017140329555272;0;0;0;0;0
3.6325826888734638;0.0019509032201612618;0;0;0;0;0
3.6419935248550011;0.0029028467725445662;0;0;0;0;0
3.6514043608365387;0.0038268343236508716;0;0;0;0;0
3.660815196818076;0.0047139673682599177;0;0;0;0;0
3.6702260327996137;0.005555702330195993;0;0;0;0;0
3.6796368687811509;0.0063439328416363986;0;0;0;0;0
3.6890477047626886;0.0070710678118654459;0;0;0;0;0
3.6984585407442259;0.0077301045336273634;0;0;0;0;0
3.7078693767257636;0.0083146961230254265;0;0;0;0;0
3.7172802127073008;0.0088192126434835424;0;0;0;0;0
3.7266910486888385;0.0092387953251128457;0;0;0;0;0
3.7361018846703757;0.0095694033573220823;0;0;0;0;0
3.7455127206519134;0.0098078528040323066;0;0;0;0;0
3.7549235566334507;0.0099518472667219655;0;0;0;0;0
3.7643343926149884;0.01;0;0;0;0;0
3.7737452285965256;0.0099518472667219724;0;0;0;0;0
3.7831560645780633;0.0098078528040323049;0;0;0;0;0
3.7925669005596006;0.0095694033573221014;0;0;0;0;0
3.8019777365411382;0.0092387953251128717;0;0;0;0;0
3.8113885725226755;0.0088192126434835736;0;0;0;0;0
3.8207994085042132;0.008314696123025463;0;0;0;0;0
3.8302102444857504;0.0077301045336274059;0;0;0;0;0
3.8396210804672881;0.0070710678118654927;0;0;0;0;0
3.8490319164488254;0.0063439328416365036;0;0;0;0;0
3.8584427524303631;0.0055557023301960485;0;0;0;0;0
3.8678535884119003;0.0047139673682600391;0;0;0;0;0
3.877264424393438;0.0038268343236509328;0;0;0;0;0
3.8866752603749752;0.0029028467725446972;0;0;0;0;0
3.8960860963565129;0.0019509032201613266;0;0;0;0;0
3.9054969323380502;0.00098017140329568911;0;0;0;0;0
3.9149077683195879;5.1447545176920603e-17;0;0;0;0;0
3.9243186043011251;-0.00098017140329558698;0;0;0;0;0
3.9337294402826628;-0.0019509032201612255;0;0;0;0;0
3.9431402762642001;-0.0029028467725445988;0;0;0;0;0
3.9525511122457377;-0.0038268343236509033;0;0;0;0;0
3.961961948227275;-0.004713967368259948;0;0;0;0;0
3.9713727842088127;-0.0055557023301960216;0;0;0;0;0
3.9807836201903499;-0.0063439328416364247;0;0;0;0;0
3.9901944561718876;-0.0070710678118654701;0;0;0;0;0
3.9996052921534249;-0.00773010453362734;0;0;0;0;0
4.0090161281349621;-0.008314696123025404;0;0;0;0;0
4.0184269641165002;-0.008819212643483558;0;0;0;0;0
4.0278378000980375;-0.0092387953251128595;0;0;0;0;0
4.0372486360795747;-0.0095694033573220719;0;0;0;0;0
4.046659472061112;-0.0098078528040322858;0;0;0;0;0
4.0560703080426501;-0.0099518472667219689;0;0;0;0;0
4.0654811440241874;-0.01;0;0;0;0;0
4.0748919800057246;-0.0099518472667219759;0;0;0;0;0
4.0843028159872619;-0.0098078528040323274;0;0;0;0;0
4.0937136519688;-0.0095694033573220909;0;0;0;0;0
4.1031244879503372;-0.0092387953251128873;0;0;0;0;0
4.1125353239318745;-0.0088192126434835909;0;0;0;0;0
4.1219461599134117;-0.0083146961230254821;0;0;0;0;0
4.1313569958949499;-0.0077301045336273834;0;0;0;0;0
4.1407678318764871;-0.0070710678118655196;0;0;0;0;0
4.1501786678580244;-0.0063439328416364776;0;0;0;0;0
4.1595895038395616;-0.0055557023301960788;0;0;0;0;0
4.1690003398210997;-0.0047139673682600079;0;0;0;0;0
4.178411175802637;-0.0038268343236509011;0;0;0;0;0
4.1878220117841742;-0.0029028467725446643;0;0;0;0;0
4.1972328477657115;-0.0019509032201613628;0;0;0;0;0
4.2066436837472496;-0.00098017140329558438;0;0;0;0;0
4.2160545197287869;-1.7145055188062944e-17;0;0;0;0;0
4.2254653557103241;0.00098017140329555033;0;0;0;0;0
4.2348761916918614;0.0019509032201611896;0;0;0;0;0
4.2442870276733995;0.0029028467725446317;0;0;0;0;0
4.2536978636549367;0.0038268343236508694;0;0;0;0;0
4.263108699636474;0.0047139673682599151;0;0;0;0;0
4.2725195356180112;0.0055557023301959323;0;0;0;0;0
4.2819303715995494;0.0063439328416364507;0;0;0;0;0
4.2913412075810866;0.0070710678118654433;0;0;0;0;0
4.3007520435626239;0.0077301045336273166;0;0;0;0;0
4.3101628795441611;0.0083146961230254248;0;0;0;0;0
4.3195737155256992;0.0088192126434835424;0;0;0;0;0
4.3289845515072365;0.0092387953251128457;0;0;0;0;0
4.3383953874887737;0.0095694033573220615;0;0;0;0;0
4.347806223470311;0.0098078528040322927;0;0;0;0;0
4.3572170594518491;0.0099518472667219655;0;0;0;0;0
4.3666278954333864;0.01;0;0;0;0;0
4.3760387314149236;0.0099518472667219724;0;0;0;0;0
4.3854495673964609;0.0098078528040323205;0;0;0;0;0
4.394860403377999;0.0095694033573221014;0;0;0;0;0
4.4042712393595362;0.0092387953251128734;0;0;0;0;0
4.4136820753410735;0.0088192126434835753;0;0;0;0;0
4.4230929113226107;0.0083146961230255029;0;0;0;0;0
4.4325037473041489;0.0077301045336273626;0;0;0;0;0
4.4419145832856861;0.0070710678118654944;0;0;0;0;0
4.4513254192672234;0.0063439328416365062;0;0;0;0;0
4.4607362552487606;0.0055557023301961092;0;0;0;0;0
4.4701470912302987;0.0047139673682599784;0;0;0;0;0
4.479557927211836;0.0038268343236509349;0;0;0;0;0
4.4889687631933732;0.0029028467725446994;0;0;0;0;0
4.4983795991749105;0.0019509032201613986;0;0;0;0;0
4.5077904351564486;0.00098017140329562081;0;0;0;0;0
4.5172012711379859;5.3896838775215304e-17;0;0;0;0;0
4.5266121071195231;-0.00098017140329551369;0;0;0;0;0
4.5360229431010604;-0.0019509032201612232;0;0;0;0;0
4.5454337790825985;-0.0029028467725445966;0;0;0;0;0
4.5548446150641357;-0.0038268343236508356;0;0;0;0;0
4.564255451045673;-0.0047139673682599454;0;0;0;0;0
4.5736662870272102;-0.0055557023301959609;0;0;0;0;0
4.5830771230087484;-0.0063439328416364229;0;0;0;0;0
4.5924879589902856;-0.0070710678118654181;0;0;0;0;0
4.6018987949718229;-0.0077301045336273392;0;0;0;0;0
4.6113096309533601;-0.008314696123025404;0;0;0;0;0
4.6207204669348982;-0.0088192126434835233;0;0;0;0;0
4.6301313029164355;-0.0092387953251128595;0;0;0;0;0
4.6395421388979727;-0.0095694033573220701;0;0;0;0;0
4.64895297487951;-0.009807852804032284;0;0;0;0;0
4.6583638108610481;-0.0099518472667219689;0;0;0;0;0
4.6677746468425854;-0.01;0;0;0;0;0
4.6771854828241226;-0.0099518472667219759;0;0;0;0;0
4.6865963188056599;-0.0098078528040323274;0;0;0;0;0
4.696007154787198;-0.0095694033573220909;0;0;0;0;0
4.7054179907687352;-0.0092387953251128873;0;0;0;0;0
4.7148288267502725;-0.0088192126434835927;0;0;0;0;0
4.7242396627318097;-0.0083146961230255237;0;0;0;0;0
4.7336504987133479;-0.007730104533627386;0;0;0;0;0
4.7430613346948851;-0.0070710678118655204;0;0;0;0;0
4.7524721706764224;-0.0063439328416365348;0;0;0;0;0
4.7618830066579596;-0.0055557023301960806;0;0;0;0;0
4.7712938426394977;-0.0047139673682600105;0;0;0;0;0
4.780704678621035;-0.0038268343236509688;0;0;0;0;0
4.7901155146025722;-0.0029028467725446669;0;0;0;0;0
4.7995263505841095;-0.001950903220161365;0;0;0;0;0
4.8089371865656476;-0.00098017140329565745;0;0;0;0;0
4.8183480225471849;-1.9594348786357651e-17;0;0;0;0;0
4.8277588585287221;0.00098017140329554773;0;0;0;0;0
4.8371696945102602;0.001950903220161257;0;0;0;0;0
4.8465805304917975;0.002902846772544561;0;0;0;0;0
4.8559913664733347;0.0038268343236508673;0;0;0;0;0
4.865402202454872;0.0047139673682599133;0;0;0;0;0
4.8748130384364101;0.0055557023301959895;0;0;0;0;0
4.8842238744179474;0.0063439328416364498;0;0;0;0;0
4.8936347103994846;0.0070710678118654424;0;0;0;0;0
4.9030455463810219;0.0077301045336273157;0;0;0;0;0
4.91245638236256;0.008314696123025463;0;0;0;0;0
4.9218672183440972;0.0088192126434835406;0;0;0;0;0
4.9312780543256345;0.0092387953251128439;0;0;0;0;0
4.9406888903071717;0.0095694033573220615;0;0;0;0;0
4.9500997262887099;0.0098078528040323049;0;0;0;0;0
4.9595105622702471;0.0099518472667219655;0;0;0;0;0
4.9689213982517844;0.01;0;0;0;0;0
4.9783322342333216;0.0099518472667219811;0;0;0;0;0
4.9877430702148597;0.0098078528040323066;0;0;0;0;0
4.997153906196397;0.0095694033573221031;0;0;0;0;0
5.0065647421779342;0.0092387953251129012;0;0;0;0;0
5.0159755781594715;0.0088192126434835771;0;0;0;0;0
5.0253864141410096;0.0083146961230254647;0;0;0;0;0
5.0347972501225469;0.0077301045336274085;0;0;0;0;0
5.0442080861040841;0.0070710678118654962;0;0;0;0;0
5.0536189220856214;0.0063439328416365079;0;0;0;0;0
5.0630297580671595;0.005555702330196052;0;0;0;0;0
5.0724405940486967;0.0047139673682599801;0;0;0;0;0
5.081851430030234;0.0038268343236509375;0;0;0;0;0
5.0912622660117712;0.002902846772544702;0;0;0;0;0
5.1006731019933094;0.0019509032201613314;0;0;0;0;0
5.1100839379748466;0.00098017140329562341;0;0;0;0;0
5.1194947739563839;5.6346132373510012e-17;0;0;0;0;0
5.1289056099379211;-0.0009801714032955113;0;0;0;0;0
5.1383164459194592;-0.0019509032201612906;0;0;0;0;0
5.1477272819009965;-0.002902846772544594;0;0;0;0;0
5.1571381178825337;-0.0038268343236508334;0;0;0;0;0
5.166548953864071;-0.0047139673682598804;0;0;0;0;0
5.1759597898456091;-0.0055557023301960173;0;0;0;0;0
5.1853706258271464;-0.0063439328416364203;0;0;0;0;0
5.1947814618086836;-0.0070710678118654172;0;0;0;0;0
5.2041922977902209;-0.0077301045336272923;0;0;0;0;0
5.213603133771759;-0.0083146961230254422;0;0;0;0;0
5.2230139697532962;-0.0088192126434835233;0;0;0;0;0
5.2324248057348335;-0.0092387953251128318;0;0;0;0;0
5.2418356417163707;-0.0095694033573220701;0;0;0;0;0
5.2512464776979089;-0.0098078528040322979;0;0;0;0;0
5.2606573136794461;-0.009951847266721962;0;0;0;0;0
5.2700681496609834;-0.01;0;0;0;0;0
5.2794789856425206;-0.0099518472667219776;0;0;0;0;0
5.2888898216240587;-0.0098078528040323135;0;0;0;0;0
5.298300657605596;-0.0095694033573220927;0;0;0;0;0
5.3077114935871332;-0.0092387953251128873;0;0;0;0;0
5.3171223295686705;-0.0088192126434835944;0;0;0;0;0
5.3265331655502086;-0.0083146961230254456;0;0;0;0;0
5.3359440015317459;-0.0077301045336273869;0;0;0;0;0
5.3453548375132831;-0.0070710678118655222;0;0;0;0;0
5.3547656734948204;-0.0063439328416365357;0;0;0;0;0
5.3641765094763585;-0.0055557023301960242;0;0;0;0;0
5.3735873454578957;-0.0047139673682600122;0;0;0;0;0
5.382998181439433;-0.0038268343236509714;0;0;0;0;0
5.3924090174209702;-0.0029028467725447371;0;0;0;0;0
5.4018198534025084;-0.0019509032201612978;0;0;0;0;0
5.4112306893840456;-0.00098017140329566006;0;0;0;0;0
5.4206415253655829;-9.3097915960662378e-17;0;0;0;0;0
5.4300523613471201;0.00098017140329554535;0;0;0;0;0
5.4394631973286582;0.0019509032201612544;0;0;0;0;0
5.4488740333101955;0.0029028467725445589;0;0;0;0;0
5.4582848692917327;0.0038268343236507992;0;0;0;0;0
5.46769570527327;0.0047139673682599107;0;0;0;0;0
5.4771065412548081;0.0055557023301959878;0;0;0;0;0
5.4865173772363454;0.0063439328416363926;0;0;0;0;0
5.4959282132178826;0.0070710678118654407;0;0;0;0;0
5.5053390491994199;0.0077301045336273131;0;0;0;0;0
5.514749885180958;0.0083146961230254213;0;0;0;0;0
5.5241607211624952;0.0088192126434835389;0;0;0;0;0
5.5335715571440325;0.0092387953251128439;0;0;0;0;0
5.5429823931255697;0.0095694033573220597;0;0;0;0;0
5.5523932291071079;0.0098078528040323049;0;0;0;0;0
5.5618040650886451;0.0099518472667219655;0;0;0;0;0
5.5712149010701824;0.01;0;0;0;0;0
5.5806257370517196;0.0099518472667219811;0;0;0;0;0
5.5900365730332577;0.0098078528040323066;0;0;0;0;0
5.599447409014795;0.0095694033573221048;0;0;0;0;0
5.6088582449963322;0.0092387953251129012;0;0;0;0;0
5.6182690809778695;0.00881921264348361;0;0;0;0;0
5.6276799169594076;0.0083146961230254664;0;0;0;0;0
5.6370907529409449;0.0077301045336274103;0;0;0;0;0
5.6465015889224821;0.0070710678118655482;0;0;0;0;0
5.6559124249040194;0.0063439328416365097;0;0;0;0;0
5.6653232608855575;0.0055557023301960537;0;0;0;0;0
5.6747340968670947;0.0047139673682600452;0;0;0;0;0
5.684144932848632;0.0038268343236509397;0;0;0;0;0
5.6935557688301692;0.0029028467725447046;0;0;0;0;0
5.7029666048117074;0.001950903220161334;0;0;0;0;0
5.7123774407932446;0.00098017140329569648;0;0;0;0;0
5.7217882767747819;5.8795425971804725e-17;0;0;0;0;0
5.7311991127563191;-0.0009801714032955087;0;0;0;0;0
5.7406099487378572;-0.0019509032201612184;0;0;0;0;0
5.7500207847193945;-0.0029028467725445918;0;0;0;0;0
5.7594316207009317;-0.0038268343236508313;0;0;0;0;0
5.768842456682469;-0.0047139673682598787;0;0;0;0;0
5.7782532926640071;-0.0055557023301960155;0;0;0;0;0
5.7876641286455444;-0.0063439328416364186;0;0;0;0;0
5.7970749646270816;-0.0070710678118654146;0;0;0;0;0
5.8064858006086189;-0.0077301045336272906;0;0;0;0;0
5.815896636590157;-0.0083146961230254404;0;0;0;0;0
5.8253074725716942;-0.0088192126434835216;0;0;0;0;0
5.8347183085532315;-0.0092387953251128301;0;0;0;0;0
5.8441291445347687;-0.0095694033573220493;0;0;0;0;0
5.8535399805163069;-0.0098078528040322979;0;0;0;0;0
5.8629508164978441;-0.009951847266721962;0;0;0;0;0
5.8723616524793814;-0.01;0;0;0;0;0
5.8817724884609186;-0.0099518472667219776;0;0;0;0;0
5.8911833244424567;-0.0098078528040323153;0;0;0;0;0
5.900594160423994;-0.0095694033573221135;0;0;0;0;0
5.9100049964055312;-0.009238795325112889;0;0;0;0;0
5.9194158323870685;-0.0088192126434835944;0;0;0;0;0
5.9288266683686066;-0.0083146961230254873;0;0;0;0;0
5.9382375043501439;-0.0077301045336273886;0;0;0;0;0
5.9476483403316811;-0.0070710678118655239;0;0;0;0;0
5.9570591763132184;-0.0063439328416365383;0;0;0;0;0
5.9664700122947565;-0.0055557023301960849;0;0;0;0;0
5.9758808482762937;-0.0047139673682600148;0;0;0;0;0
5.985291684257831;-0.0038268343236509735;0;0;0;0;0
5.9947025202393682;-0.0029028467725447393;0;0;0;0;0
6.0041133562209064;-0.0019509032201612999;0;0;0;0;0
6.0135241922024436;-0.00098017140329566244;0;0;0;0;0
6.0229350281839809;-9.5547209558957079e-17;0;0;0;0;0
6.032345864165519;0.00098017140329561365;0;0;0;0;0
6.0417567001470562;0.001950903220161252;0;0;0;0;0
6.0511675361285935;0.0029028467725445567;0;0;0;0;0
6.0605783721101307;0.003826834323650797;0;0;0;0;0
6.0699892080916689;0.0047139673682599715;0;0;0;0;0
6.0794000440732061;0.0055557023301959852;0;0;0;0;0
6.0888108800547434;0.0063439328416363908;0;0;0;0;0
6.0982217160362806;0.0070710678118653895;0;0;0;0;0
6.1076325520178187;0.0077301045336273582;0;0;0;0;0
6.117043387999356;0.0083146961230254196;0;0;0;0;0
6.1264542239808932;0.0088192126434835059;0;0;0;0;0
6.1358650599624305;0.0092387953251128439;0;0;0;0;0
6.1452758959439686;0.0095694033573220996;0;0;0;0;0
6.1546867319255059;0.0098078528040323049;0;0;0;0;0
6.1640975679070431;0.0099518472667219655;0;0;0;0;0
6.1735084038885804;0.01;0;0;0;0;0
6.1829192398701185;0.0099518472667219655;0;0;0;0;0
6.1923300758516557;0.0098078528040323083;0;0;0;0;0
6.201740911833193;0.0095694033573221048;0;0;0;0;0
6.2111517478147302;0.0092387953251129029;0;0;0;0;0
6.2205625837962684;0.0088192126434835458;0;0;0;0;0
6.2299734197778056;0.0083146961230254682;0;0;0;0;0
6.2393842557593429;0.007730104533627412;0;0;0;0;0
6.2487950917408801;0.0070710678118655499;0;0;0;0;0
6.2582059277224182;0.0063439328416364576;0;0;0;0;0
6.2676167637039555;0.0055557023301960563;0;0;0;0;0
6.2770275996854927;0.0047139673682600469;0;0;0;0;0
6.28643843566703;0.0038268343236510078;0;0;0;0;0
6.2958492716485681;0.0029028467725446391;0;0;0;0;0
6.3052601076301054;0.0019509032201613361;0;0;0;0;0
6.3146709436116426;0.00098017140329569909;0;0;0;0;0
6.3240817795931799;1.3229899314610943e-16;0;0;0;0;0
6.333492615574718;-0.00098017140329557701;0;0;0;0;0
6.3429034515562552;-0.001950903220161216;0;0;0;0;0
6.3523142875377925;-0.0029028467725445211;0;0;0;0;0
6.3617251235193297;-0.0038268343236507632;0;0;0;0;0
6.3711359595008679;-0.0047139673682599385;0;0;0;0;0
6.3805467954824051;-0.0055557023301959539;0;0;0;0;0
6.3899576314639424;-0.0063439328416363613;0;0;0;0;0
6.3993684674454796;-0.0070710678118653626;0;0;0;0;0
6.4087793034270177;-0.0077301045336273348;0;0;0;0;0
6.418190139408555;-0.0083146961230254005;0;0;0;0;0
6.4276009753900922;-0.0088192126434834869;0;0;0;0;0
6.4370118113716295;-0.0092387953251128561;0;0;0;0;0
6.4464226473531676;-0.0095694033573220684;0;0;0;0;0
6.4558334833347049;-0.009807852804032284;0;0;0;0;0
6.4652443193162421;-0.0099518472667219551;0;0;0;0;0
6.4746551552977794;-0.01;0;0;0;0;0
6.4840659912793175;-0.0099518472667219776;0;0;0;0;0
6.4934768272608547;-0.0098078528040323291;0;0;0;0;0
6.502887663242392;-0.0095694033573220944;0;0;0;0;0
6.5122984992239292;-0.009238795325112889;0;0;0;0;0
6.5217093352054674;-0.0088192126434835962;0;0;0;0;0
6.5311201711870046;-0.0083146961230254491;0;0;0;0;0
6.5405310071685419;-0.0077301045336273903;0;0;0;0;0
6.5499418431500791;-0.0070710678118655257;0;0;0;0;0
6.5593526791316172;-0.0063439328416364307;0;0;0;0;0
6.5687635151131545;-0.0055557023301960277;0;0;0;0;0
6.5781743510946917;-0.0047139673682600174;0;0;0;0;0
6.587585187076229;-0.0038268343236509757;0;0;0;0;0
6.5969960230577671;-0.0029028467725446057;0;0;0;0;0
6.6064068590393044;-0.0019509032201613025;0;0;0;0;0
6.6158176950208416;-0.00098017140329566483;0;0;0;0;0
6.6252285310023789;-9.799650315725178e-17;0;0;0;0;0
6.634639366983917;0.00098017140329561127;0;0;0;0;0
6.6440502029654542;0.0019509032201612498;0;0;0;0;0
6.6534610389469915;0.0029028467725445545;0;0;0;0;0
6.6628718749285287;0.0038268343236507948;0;0;0;0;0
6.6722827109100669;0.0047139673682599697;0;0;0;0;0
6.6816935468916041;0.0055557023301959834;0;0;0;0;0
6.6911043828731414;0.0063439328416363882;0;0;0;0;0
6.7005152188546786;0.0070710678118653869;0;0;0;0;0
6.7099260548362167;0.0077301045336273556;0;0;0;0;0
6.719336890817754;0.0083146961230254196;0;0;0;0;0
6.7287477267992912;0.0088192126434835042;0;0;0;0;0
6.7381585627808285;0.0092387953251128144;0;0;0;0;0
6.7475693987623666;0.0095694033573220788;0;0;0;0;0
6.7569802347439039;0.0098078528040322892;0;0;0;0;0
6.7663910707254411;0.0099518472667219585;0;0;0;0;0
6.7758019067069784;0.01;0;0;0;0;0
6.7852127426885165;0.0099518472667219741;0;0;0;0;0
6.7946235786700537;0.0098078528040323222;0;0;0;0;0
6.804034414651591;0.0095694033573221256;0;0;0;0;0
6.8134452506331282;0.0092387953251129307;0;0;0;0;0
6.8228560866146664;0.0088192126434835788;0;0;0;0;0
6.8322669225962036;0.0083146961230255098;0;0;0;0;0
6.8416777585777409;0.0077301045336274589;0;0;0;0;0
6.8510885945592781;0.0070710678118656011;0;0;0;0;0
6.8604994305408162;0.006343932841636514;0;0;0;0;0
6.8699102665223535;0.005555702330196117;0;0;0;0;0
6.8793211025038907;0.004713967368260112;0;0;0;0;0
6.888731938485428;0.003826834323650944;0;0;0;0;0
6.8981427744669661;0.0029028467725447089;0;0;0;0;0
6.9075536104485034;0.0019509032201614083;0;0;0;0;0
6.9169644464300406;0.00098017140329563078;0;0;0;0;0
6.9263752824115778;6.3694013168394139e-17;0;0;0;0;0
6.935786118393116;-0.00098017140329550393;0;0;0;0;0
6.9451969543746532;-0.001950903220161144;0;0;0;0;0
6.9546077903561905;-0.0029028467725445875;0;0;0;0;0
6.9640186263377277;-0.0038268343236508265;0;0;0;0;0
6.9734294623192659;-0.0047139673682598743;0;0;0;0;0
6.9828402983008031;-0.0055557023301960121;0;0;0;0;0
6.9922511342823404;-0.0063439328416364151;0;0;0;0;0
7.0016619702638776;-0.0070710678118654112;0;0;0;0;0
7.0110728062454157;-0.0077301045336273782;0;0;0;0;0
7.020483642226953;-0.0083146961230254387;0;0;0;0;0
7.0298944782084902;-0.0088192126434835198;0;0;0;0;0
7.0393053141900275;-0.0092387953251128283;0;0;0;0;0
7.0487161501715656;-0.0095694033573220892;0;0;0;0;0
7.0581269861531029;-0.0098078528040322962;0;0;0;0;0
7.0675378221346401;-0.009951847266721962;0;0;0;0;0
7.0769486581161773;-0.01;0;0;0;0;0
7.0863594940977155;-0.0099518472667219707;0;0;0;0;0
7.0957703300792527;-0.0098078528040323153;0;0;0;0;0
7.10518116606079;-0.0095694033573221152;0;0;0;0;0
7.1145920020423272;-0.0092387953251129168;0;0;0;0;0
7.1240028380238654;-0.0088192126434835632;0;0;0;0;0
7.1334136740054026;-0.008314696123025489;0;0;0;0;0
7.1428245099869399;-0.0077301045336274363;0;0;0;0;0
7.1522353459684771;-0.0070710678118655777;0;0;0;0;0
7.1616461819500152;-0.0063439328416364871;0;0;0;0;0
7.1710570179315525;-0.0055557023301960893;0;0;0;0;0
7.1804678539130897;-0.0047139673682600816;0;0;0;0;0
7.189878689894627;-0.0038268343236510438;0;0;0;0;0
7.1992895258761651;-0.002902846772544676;0;0;0;0;0
7.2087003618577024;-0.0019509032201613747;0;0;0;0;0
7.2181111978392396;-0.00098017140329573812;0;0;0;0;0
7.2275220338207777;-2.9391523179536474e-17;0;0;0;0;0
7.236932869802315;0.00098017140329553797;0;0;0;0;0
7.2463437057838522;0.0019509032201611776;0;0;0;0;0
7.2557545417653895;0.0029028467725444838;0;0;0;0;0
7.2651653777469276;0.0038268343236508577;0;0;0;0;0
7.2745762137284649;0.0047139673682599047;0;0;0;0;0
7.2839870497100021;0.0055557023301959219;0;0;0;0;0
7.2933978856915394;0.0063439328416363319;0;0;0;0;0
7.3028087216730775;0.0070710678118654363;0;0;0;0;0
7.3122195576546147;0.0077301045336273088;0;0;0;0;0
7.321630393636152;0.008314696123025378;0;0;0;0;0
7.3310412296176892;0.0088192126434834678;0;0;0;0;0
7.3404520655992274;0.0092387953251128405;0;0;0;0;0
7.3498629015807646;0.009569403357322058;0;0;0;0;0
7.3592737375623019;0.0098078528040322754;0;0;0;0;0
7.3686845735438391;0.0099518472667219655;0;0;0;0;0
7.3780954095253772;0.01;0;0;0;0;0
7.3875062455069145;0.0099518472667219811;0;0;0;0;0
7.3969170814884517;0.0098078528040323083;0;0;0;0;0
7.406327917469989;0.0095694033573221048;0;0;0;0;0
7.4157387534515271;0.0092387953251129046;0;0;0;0;0
7.4251495894330644;0.0088192126434835476;0;0;0;0;0
7.4345604254146016;0.0083146961230254699;0;0;0;0;0
7.4439712613961388;0.0077301045336274146;0;0;0;0;0
7.453382097377677;0.0070710678118655534;0;0;0;0;0
7.4627929333592142;0.0063439328416364602;0;0;0;0;0
7.4722037693407515;0.0055557023301960606;0;0;0;0;0
7.4816146053222887;0.0047139673682600513;0;0;0;0;0
7.4910254413038269;0.0038268343236508807;0;0;0;0;0
7.5004362772853641;0.0029028467725446434;0;0;0;0;0
7.5098471132669014;0.0019509032201613411;0;0;0;0;0
7.5192579492484386;0.00098017140329570386;0;0;0;0;0
7.5286687852299767;-4.9109668093211799e-18;0;0;0;0;0
7.538079621211514;-0.00098017140329557224;0;0;0;0;0
7.5474904571930512;-0.0019509032201612112;0;0;0;0;0
7.5569012931745885;-0.0029028467725445168;0;0;0;0;0
7.5663121291561266;-0.0038268343236508903;0;0;0;0;0
7.5757229651376639;-0.004713967368259935;0;0;0;0;0
7.5851338011192011;-0.0055557023301959505;0;0;0;0;0
7.5945446371007383;-0.0063439328416363587;0;0;0;0;0
7.6039554730822765;-0.0070710678118654606;0;0;0;0;0
7.6133663090638137;-0.0077301045336273314;0;0;0;0;0
7.622777145045351;-0.0083146961230253971;0;0;0;0;0
7.6321879810268882;-0.0088192126434834851;0;0;0;0;0
7.6415988170084264;-0.0092387953251128543;0;0;0;0;0
7.6510096529899636;-0.0095694033573220667;0;0;0;0;0
7.6604204889715009;-0.0098078528040322823;0;0;0;0;0
7.6698313249530381;-0.0099518472667219533;0;0;0;0;0
7.6792421609345762;-0.01;0;0;0;0;0
7.6886529969161135;-0.0099518472667219776;0;0;0;0;0
7.6980638328976507;-0.0098078528040323291;0;0;0;0;0
7.707474668879188;-0.0095694033573221378;0;0;0;0;0
7.7168855048607261;-0.0092387953251128925;0;0;0;0;0
7.7262963408422634;-0.0088192126434835979;0;0;0;0;0
7.7357071768238006;-0.0083146961230255306;0;0;0;0;0
7.7451180128053378;-0.0077301045336274831;0;0;0;0;0
7.754528848786876;-0.0070710678118655291;0;0;0;0;0
7.7639396847684132;-0.0063439328416365435;0;0;0;0;0
7.7733505207499505;-0.0055557023301961508;0;0;0;0;0
7.7827613567314877;-0.0047139673682600209;0;0;0;0;0
7.7921721927130259;-0.0038268343236509805;0;0;0;0;0
7.8015830286945631;-0.0029028467725447466;0;0;0;0;0
7.8109938646761004;-0.0019509032201614469;0;0;0;0;0
7.8204047006576376;-0.00098017140329566981;0;0;0;0;0
7.8298155366391757;-1.0289509035384121e-16;0;0;0;0;0
7.839226372620713;0.0009801714032954649;0;0;0;0;0
7.8486372086022502;0.0019509032201612448;0;0;0;0;0
7.8580480445837875;0.0029028467725445493;0;0;0;0;0
7.8674588805653256;0.0038268343236507901;0;0;0;0;0
7.8768697165468629;0.0047139673682599645;0;0;0;0;0
7.8862805525284001;0.0055557023301959782;0;0;0;0;0
7.8956913885099373;0.0063439328416363848;0;0;0;0;0
7.9051022244914755;0.007071067811865484;0;0;0;0;0
7.9145130604730127;0.0077301045336273522;0;0;0;0;0
7.92392389645455;0.0083146961230254161;0;0;0;0;0
7.9333347324360872;0.0088192126434835007;0;0;0;0;0
7.9427455684176254;0.0092387953251128682;0;0;0;0;0
7.9521564043991626;0.0095694033573220771;0;0;0;0;0
7.9615672403806999;0.0098078528040322892;0;0;0;0;0
7.9709780763622371;0.0099518472667219568;0;0;0;0;0
7.9803889123437752;0.01;0;0;0;0;0
7.9897997483253125;0.0099518472667219741;0;0;0;0;0
7.9992105843068497;0.0098078528040323222;0;0;0;0;0
8.008621420288387;0.0095694033573221274;0;0;0;0;0
8.0180322562699242;0.0092387953251129324;0;0;0;0;0
8.0274430922514615;0.0088192126434836499;0;0;0;0;0
8.0368539282330005;0.0083146961230254317;0;0;0;0;0
8.0462647642145377;0.0077301045336273713;0;0;0;0;0
8.055675600196075;0.0070710678118655048;0;0;0;0;0
8.0650864361776122;0.0063439328416365175;0;0;0;0;0
8.0744972721591495;0.0055557023301961222;0;0;0;0;0
8.0839081081406867;0.0047139673682601163;0;0;0;0;0
8.093318944122224;0.0038268343236510798;0;0;0;0;0
8.1027297801037612;0.0029028467725448499;0;0;0;0;0
8.1121406160853002;0.0019509032201612737;0;0;0;0;0
8.1215514520668375;0.00098017140329563555;0;0;0;0;0
8.1309622880483747;6.8592600364983554e-17;0;0;0;0;0
8.140373124029912;-0.00098017140329549916;0;0;0;0;0
8.1497839600114492;-0.001950903220161139;0;0;0;0;0
8.1591947959929865;-0.0029028467725444461;0;0;0;0;0
8.1686056319745237;-0.0038268343236506908;0;0;0;0;0
8.178016467956061;-0.00471396736825987;0;0;0;0;0
8.1874273039376;-0.0055557023301960077;0;0;0;0;0
8.1968381399191372;-0.0063439328416364116;0;0;0;0;0
8.2062489759006745;-0.0070710678118654086;0;0;0;0;0
8.2156598118822117;-0.0077301045336272845;0;0;0;0;0
8.225070647863749;-0.0083146961230253554;0;0;0;0;0
8.2344814838452862;-0.0088192126434835181;0;0;0;0;0
8.2438923198268235;-0.0092387953251128266;0;0;0;0;0
8.2533031558083607;-0.0095694033573220458;0;0;0;0;0
8.2627139917898997;-0.0098078528040322962;0;0;0;0;0
8.272124827771437;-0.0099518472667219603;0;0;0;0;0
8.2815356637529742;-0.01;0;0;0;0;0
8.2909464997345115;-0.0099518472667219707;0;0;0;0;0
8.3003573357160487;-0.0098078528040323153;0;0;0;0;0
8.309768171697586;-0.009569403357322117;0;0;0;0;0
8.3191790076791232;-0.0092387953251129203;0;0;0;0;0
8.3285898436606605;-0.0088192126434836326;0;0;0;0;0
8.3380006796421995;-0.0083146961230254925;0;0;0;0;0
8.3474115156237367;-0.0077301045336274398;0;0;0;0;0
8.356822351605274;-0.0070710678118654805;0;0;0;0;0
8.3662331875868112;-0.0063439328416364906;0;0;0;0;0
8.3756440235683485;-0.0055557023301960927;0;0;0;0;0
8.3850548595498857;-0.004713967368260086;0;0;0;0;0
8.394465695531423;-0.0038268343236510485;0;0;0;0;0
8.4038765315129602;-0.0029028467725448169;0;0;0;0;0
8.4132873674944992;-0.0019509032201612401;0;0;0;0;0
8.4226982034760365;-0.00098017140329560151;0;0;0;0;0
8.4321090394575737;-3.4290110376125888e-17;0;0;0;0;0
8.441519875439111;0.0009801714032955332;0;0;0;0;0
8.4509307114206482;0.0019509032201611729;0;0;0;0;0
8.4603415474021855;0.0029028467725444791;0;0;0;0;0
8.4697523833837227;0.0038268343236507224;0;0;0;0;0
8.4791632193652617;0.0047139673682600252;0;0;0;0;0
8.488574055346799;0.0055557023301960363;0;0;0;0;0
8.4979848913283362;0.0063439328416364385;0;0;0;0;0
8.5073957273098735;0.0070710678118654328;0;0;0;0;0
8.5168065632914107;0.0077301045336273053;0;0;0;0;0
8.526217399272948;0.0083146961230253745;0;0;0;0;0
8.5356282352544852;0.008819212643483466;0;0;0;0;0
8.5450390712360225;0.009238795325112785;0;0;0;0;0
8.5544499072175615;0.0095694033573220979;0;0;0;0;0
8.5638607431990987;0.0098078528040323031;0;0;0;0;0
8.573271579180636;0.0099518472667219637;0;0;0;0;0
8.5826824151621732;0.01;0;0;0;0;0
8.5920932511437105;0.0099518472667219811;0;0;0;0;0
8.6015040871252477;0.0098078528040323361;0;0;0;0;0
8.610914923106785;0.0095694033573221482;0;0;0;0;0
8.6203257590883222;0.0092387953251129064;0;0;0;0;0
8.6297365950698612;0.0088192126434835493;0;0;0;0;0
8.6391474310513985;0.0083146961230254734;0;0;0;0;0
8.6485582670329357;0.0077301045336274181;0;0;0;0;0
8.657969103014473;0.0070710678118655569;0;0;0;0;0
8.6673799389960102;0.0063439328416365738;0;0;0;0;0
8.6767907749775475;0.0055557023301961829;0;0;0;0;0
8.6862016109590847;0.0047139673682600556;0;0;0;0;0
8.695612446940622;0.0038268343236510169;0;0;0;0;0
8.705023282922161;0.0029028467725446478;0;0;0;0;0
8.7144341189036982;0.0019509032201613459;0;0;0;0;0
8.7238449548852355;0.00098017140329570884;0;0;0;0;0
8.7332557908667727;1.4209616753928826e-16;0;0;0;0;0
8.74266662684831;-0.00098017140329556725;0;0;0;0;0
8.7520774628298472;-0.0019509032201612065;0;0;0;0;0
8.7614882988113845;-0.0029028467725445125;0;0;0;0;0
8.7708991347929217;-0.0038268343236507541;0;0;0;0;0
8.7803099707744607;-0.0047139673682599307;0;0;0;0;0
8.789720806755998;-0.0055557023301959461;0;0;0;0;0
8.7991316427375352;-0.0063439328416364637;0;0;0;0;0
8.8085424787190725;-0.0070710678118654563;0;0;0;0;0
8.8179533147006097;-0.0077301045336273279;0;0;0;0;0
8.827364150682147;-0.0083146961230253953;0;0;0;0;0
8.8367749866636842;-0.0088192126434834834;0;0;0;0;0
8.8461858226452215;-0.0092387953251127971;0;0;0;0;0
8.8555966586267605;-0.0095694033573220667;0;0;0;0;0
8.8650074946082977;-0.0098078528040323083;0;0;0;0;0
8.874418330589835;-0.0099518472667219672;0;0;0;0;0
8.8838291665713722;-0.01;0;0;0;0;0
8.8932400025529095;-0.0099518472667219776;0;0;0;0;0
8.9026508385344467;-0.0098078528040323309;0;0;0;0;0
8.912061674515984;-0.0095694033573221378;0;0;0;0;0
8.9214725104975212;-0.009238795325112948;0;0;0;0;0
8.9308833464790602;-0.0088192126434835337;0;0;0;0;0
8.9402941824605975;-0.0083146961230254543;0;0;0;0;0
8.9497050184421347;-0.0077301045336273964;0;0;0;0;0
8.959115854423672;-0.0070710678118655326;0;0;0;0;0
8.9685266904052092;-0.006343932841636547;0;0;0;0;0
8.9779375263867465;-0.0055557023301961543;0;0;0;0;0
8.9873483623682837;-0.004713967368260151;0;0;0;0;0
8.996759198349821;-0.0038268343236511162;0;0;0;0;0
9.00617003433136;-0.0029028467725446152;0;0;0;0;0
9.0155808703128972;-0.0019509032201613123;0;0;0;0;0
9.0249917062944345;-0.00098017140329567458;0;0;0;0;0
9.0344025422759717;-1.0779367755043061e-16;0;0;0;0;0
9.043813378257509;0.00098017140329546013;0;0;0;0;0
9.0532242142390462;0.0019509032201611006;0;0;0;0;0
9.0626350502205835;0.0029028467725444092;0;0;0;0;0
9.0720458862021207;0.0038268343236507857;0;0;0;0;0
9.0814567221836597;0.0047139673682599602;0;0;0;0;0
9.090867558165197;0.0055557023301959756;0;0;0;0;0
9.1002783941467342;0.0063439328416363804;0;0;0;0;0
9.1096892301282715;0.0070710678118653808;0;0;0;0;0
9.1191000661098087;0.0077301045336272594;0;0;0;0;0
9.128510902091346;0.0083146961230254144;0;0;0;0;0
9.1379217380728832;0.008819212643483499;0;0;0;0;0
9.1473325740544205;0.009238795325112811;0;0;0;0;0
9.1567434100359595;0.0095694033573220771;0;0;0;0;0
9.1661542460174967;0.0098078528040322875;0;0;0;0;0
9.175565081999034;0.0099518472667219568;0;0;0;0;0
9.1849759179805712;0.01;0;0;0;0;0
9.1943867539621085;0.0099518472667219759;0;0;0;0;0
9.2037975899436457;0.0098078528040323239;0;0;0;0;0
9.213208425925183;0.0095694033573221291;0;0;0;0;0
9.2226192619067202;0.0092387953251129359;0;0;0;0;0
9.2320300978882592;0.008819212643483584;0;0;0;0;0
9.2414409338697965;0.0083146961230255133;0;0;0;0;0
9.2508517698513337;0.0077301045336273747;0;0;0;0;0
9.260262605832871;0.0070710678118655083;0;0;0;0;0
9.2696734418144082;0.0063439328416365218;0;0;0;0;0
9.2790842777959455;0.0055557023301961266;0;0;0;0;0
9.2884951137774827;0.0047139673682601206;0;0;0;0;0
9.29790594975902;0.0038268343236510845;0;0;0;0;0
9.307316785740559;0.0029028467725445823;0;0;0;0;0
9.3167276217220962;0.0019509032201612787;0;0;0;0;0
9.3261384577036335;0.00098017140329564054;0;0;0;0;0
9.3355492936851707;7.3491187561572956e-17;0;0;0;0;0
9.344960129666708;-0.00098017140329549417;0;0;0;0;0
9.3543709656482452;-0.0019509032201611343;0;0;0;0;0
9.3637818016297825;-0.0029028467725444418;0;0;0;0;0
9.3731926376113197;-0.0038268343236506864;0;0;0;0;0
9.3826034735928587;-0.0047139673682599905;0;0;0;0;0
9.392014309574396;-0.0055557023301960034;0;0;0;0;0
9.4014251455559332;-0.0063439328416364073;0;0;0;0;0
9.4108359815374705;-0.0070710678118654051;0;0;0;0;0
9.4202468175190077;-0.007730104533627281;0;0;0;0;0
9.429657653500545;-0.0083146961230253537;0;0;0;0;0
9.4390684894820822;-0.0088192126434834487;0;0;0;0;0
9.4484793254636195;-0.0092387953251127693;0;0;0;0;0
9.4578901614451585;-0.0095694033573220857;0;0;0;0;0
9.4673009974266957;-0.0098078528040322945;0;0;0;0;0
9.476711833408233;-0.0099518472667219603;0;0;0;0;0
9.4861226693897702;-0.01;0;0;0;0;0
9.4955335053713075;-0.0099518472667219846;0;0;0;0;0
9.5049443413528447;-0.0098078528040323448;0;0;0;0;0
9.514355177334382;-0.0095694033573221187;0;0;0;0;0
9.5237660133159192;-0.009238795325112922;0;0;0;0;0
9.5331768492974582;-0.0088192126434835684;0;0;0;0;0
9.5425876852789955;-0.0083146961230254942;0;0;0;0;0
9.5519985212605327;-0.0077301045336274432;0;0;0;0;0
9.56140935724207;-0.0070710678118655846;0;0;0;0;0
9.5708201932236072;-0.0063439328416366051;0;0;0;0;0
9.5802310292051445;-0.0055557023301960971;0;0;0;0;0
9.5896418651866817;-0.0047139673682600903;0;0;0;0;0
9.599052701168219;-0.0038268343236510529;0;0;0;0;0
9.608463537149758;-0.0029028467725446855;0;0;0;0;0
9.6178743731312952;-0.0019509032201613841;0;0;0;0;0
9.6272852091128325;-0.00098017140329574766;0;0;0;0;0
9.6366960450943697;-3.9188697572715302e-17;0;0;0;0;0
9.646106881075907;0.00098017140329552843;0;0;0;0;0
9.6555177170574442;0.0019509032201611679;0;0;0;0;0
9.6649285530389815;0.0029028467725444747;0;0;0;0;0
9.6743393890205205;0.0038268343236508491;0;0;0;0;0
9.6837502250020577;0.004713967368259896;0;0;0;0;0
9.693161060983595;0.0055557023301959141;0;0;0;0;0
9.7025718969651322;0.0063439328416364342;0;0;0;0;0
9.7119827329466695;0.0070710678118654285;0;0;0;0;0
9.7213935689282067;0.0077301045336273036;0;0;0;0;0
9.730804404909744;0.0083146961230253728;0;0;0;0;0
9.7402152408912812;0.0088192126434834643;0;0;0;0;0
9.7496260768728202;0.009238795325112837;0;0;0;0;0
9.7590369128543575;0.0095694033573220962;0;0;0;0;0
9.7684477488358947;0.0098078528040323014;0;0;0;0;0
9.777858584817432;0.0099518472667219637;0;0;0;0;0
9.7872694207989692;0.01;0;0;0;0;0
9.7966802567805065;0.0099518472667219811;0;0;0;0;0
9.8060910927620437;0.0098078528040323378;0;0;0;0;0
9.815501928743581;0.0095694033573221499;0;0;0;0;0
9.82491276472512;0.0092387953251128543;0;0;0;0;0
9.8343236007066572;0.0088192126434835511;0;0;0;0;0
9.8437344366881945;0.0083146961230254751;0;0;0;0;0
9.8531452726697317;0.0077301045336274216;0;0;0;0;0
9.862556108651269;0.0070710678118655603;0;0;0;0;0
9.8719669446328062;0.0063439328416365782;0;0;0;0;0
9.8813777806143435;0.0055557023301961873;0;0;0;0;0
9.8907886165958807;0.0047139673682601848;0;0;0;0;0
9.9001994525774197;0.0038268343236508903;0;0;0;0;0
9.909610288558957;0.002902846772544653;0;0;0;0;0
