#Time;LinearAccX;LinearAccY;LinearAccZ;AngularAccX;AngularAccY;AngularAccZ
0;-2.3519999999999997e-10;0;-9.8100000000000005;0;0.37446911039999997;0
5.00E-05;-0.00024479999999999999;1.1594844139178421e-11;-9.8100000000000005;0;0.37473105719999994;0
0.0001;-0.00024479999999999999;9.275873271461232e-11;-9.8100000000000005;0;0.37499300279999997;0
0.00015;-0.00024479999999999999;3.130606075424438e-10;-9.8100000000000005;0;0.37525494840000001;0
0.0002;-0.00024479999999999999;7.4206920572041204e-10;-9.8100000000000005;0;0.3755169156;0
0.00025;-0.00024479999999999999;1.4493529565906859e-09;-9.8100000000000005;0;0.37577886119999998;0
0.0003;-0.00024479999999999999;2.5044798797986215e-09;-9.8100000000000005;0;0.376040808;0
0.00035;-0.00024479999999999999;3.9770174826215421e-09;-9.8100000000000005;0;0.37630275359999998;0
0.0004;-0.00024479999999999999;5.9365326572458809e-09;-9.8100000000000005;0;0.37656472079999997;0
0.00045;-0.00024479999999999999;8.4525915785927595e-09;-9.8100000000000005;0;0.37682666640000001;0
0.0005;-0.00024479999999999999;1.1594759601674774e-08;-9.8100000000000005;0;0.37708861199999993;0
0.00055;-0.00024479999999999999;1.5432601159657953e-08;-9.8100000000000005;0;0.37735055880000001;0
0.0006;-0.00024479999999999999;2.0035679660046469e-08;-9.8100000000000005;0;0.377612526;0
0.00065;-0.00024479999999999999;2.5473557383477049e-08;-9.8100000000000005;0;0.37787447160000004;0
0.0007;-0.00024479999999999999;3.1815795381105861e-08;-9.8100000000000005;0;0.37813641719999996;0
0.00075;-0.00024479999999999999;3.9131953371840209e-08;-9.8100000000000005;0;0.37839836399999999;0
0.0008;-0.00024479999999999999;4.7491589639415064e-08;-9.8100000000000005;0;0.37866032999999999;0
0.00085;-0.00024479999999999999;5.6964260930644989e-08;-9.8100000000000005;0;0.37892227679999996;0
0.0009;-0.00024479999999999999;6.7619522353051584e-08;-9.8100000000000005;0;0.37918422239999999;0
0.00095;-0.00024479999999999999;7.9526927271501331e-08;-9.8100000000000005;0;0.37944618959999998;0
0.001;-0.00024479999999999999;9.2756027206619121e-08;-9.8100000000000005;0;0.37970813519999996;0
0.00105;-0.00024479999999999999;1.073763717318734e-07;-9.8100000000000005;0;0.3799700808;0
0.0011;-0.00024479999999999999;1.2345750837165445e-07;-9.8100000000000005;0;0.38023202759999997;0
0.00115;-0.00024479999999999999;1.4106898249771142e-07;-9.8100000000000005;0;0.38049399479999996;0
0.0012;-0.00024479999999999999;1.6028033722715693e-07;-9.8100000000000005;0;0.38075594039999999;0
0.00125;-0.00024479999999999999;1.8116111332258668e-07;-9.8100000000000005;0;0.38101788600000003;0
0.0013;-0.00024479999999999999;2.0378084908333258e-07;-9.8100000000000005;0;0.3812798328;0
0.00135;-0.00024479999999999999;2.2820908025135242e-07;-9.8100000000000005;0;0.3815417988;0
0.0014;-0.00024479999999999999;2.5451533990016659e-07;-9.8100000000000005;0;0.38180374560000002;0
0.00145;-0.00024479999999999999;2.8276915833991813e-07;-9.8100000000000005;0;0.3820656912;0
0.0015;-0.00024479999999999999;3.1304006301007204e-07;-9.8100000000000005;0;0.38232763679999998;0
0.00155;-0.00024479999999999999;3.4539757837910692e-07;-9.8100000000000005;0;0.38258960399999997;0
0.0016;-0.00024479999999999999;3.7991122584134222e-07;-9.8100000000000005;0;0.38285154959999995;0
0.00165;-0.00024479999999999999;4.1665052361447106e-07;-9.8100000000000005;0;0.38311349640000003;0
0.0017;-0.00024479999999999999;4.5568498663709805e-07;-9.8100000000000005;0;0.38337544199999996;0
0.00175;-0.00024479999999999999;4.9708412646810523e-07;-9.8100000000000005;0;0.38363740919999995;0
0.0018;-0.00024479999999999999;5.4091745118163994e-07;-9.8100000000000005;0;0.38389935479999998;0
0.00185;-0.00024479999999999999;5.8725446526453174e-07;-9.8100000000000005;0;0.38416130159999995;0
0.0019;-0.00024479999999999999;6.3616466951767837e-07;-9.8100000000000005;0;0.38442326760000001;0
0.00195;-0.00024479999999999999;6.8771756094992327e-07;-9.8100000000000005;0;0.38468521439999998;0
0.002;-0.00024479999999999999;7.4198263267548352e-07;-9.8100000000000005;0;0.38494716000000001;0
0.00205;-0.00024479999999999999;7.9902937381459183e-07;-9.8100000000000005;0;0.38520910559999999;0
0.0021;-0.00024479999999999999;8.5892726938913252e-07;-9.8100000000000005;0;0.38547107279999998;0
0.00215;-0.00024479999999999999;9.2174580021909271e-07;-9.8100000000000005;0;0.38573301840000002;0
0.0022;-0.00024479999999999999;9.8755444282459758e-07;-9.8100000000000005;0;0.38599496519999998;0
0.00225;-0.00024479999999999999;1.0564226693168392e-06;-9.8100000000000005;0;0.38625691080000002;0
0.0023;-0.00024479999999999999;1.1284199473012715e-06;-9.8100000000000005;0;0.38651887800000001;0
0.00235;-0.00024479999999999999;1.2036157397730063e-06;-9.8100000000000005;0;0.38678082359999993;0
0.0024;-0.00024479999999999999;1.2820795050156606e-06;-9.8100000000000005;0;0.38704276919999997;0
0.00245;-0.00024479999999999999;1.363880696496532e-06;-9.8100000000000005;0;0.38730471599999999;0
0.0025;-0.00024479999999999999;1.4490887627666782e-06;-9.8100000000000005;0;0.38756668320000004;0
0.00255;-0.00024479999999999999;1.5377731473573276e-06;-9.8100000000000005;0;0.38782862879999996;0
0.0026;-0.00024479999999999999;1.6300032886788515e-06;-9.8100000000000005;0;0.3880905744;0
0.00265;-0.00024479999999999999;1.7258486199143663e-06;-9.8100000000000005;0;0.38835254159999999;0
0.0027;-0.00024479999999999999;1.8253785689255481e-06;-9.8100000000000005;0;0.38861448719999997;0
0.00275;-0.00024479999999999999;1.9286625581421793e-06;-9.8100000000000005;0;0.38887643399999999;0
0.0028;-0.00024479999999999999;2.0357700044609863e-06;-9.8100000000000005;0;0.38913837959999997;0
0.00285;-0.00024479999999999999;2.146770319149093e-06;-9.8100000000000005;0;0.38940034679999996;0
0.0029;-0.00024479999999999999;2.2617329077345037e-06;-9.8100000000000005;0;0.3896622924;0
0.00295;-0.00024479999999999999;2.3807271699111844e-06;-9.8100000000000005;0;0.38992423800000003;0
0.003;-0.00024479999999999999;2.5038224994277292e-06;-9.8100000000000005;0;0.3901861848;0
0.00305;-0.00024479999999999999;2.6310882839925855e-06;-9.8100000000000005;0;0.39044815199999999;0
0.0031;-0.00024479999999999999;2.7625939051703767e-06;-9.8100000000000005;0;0.39071009760000003;0
0.00315;-0.00024479999999999999;2.8984087382764209e-06;-9.8100000000000005;0;0.39097204320000001;0
0.0032;-0.00024479999999999999;3.038602152277625e-06;-9.8100000000000005;0;0.39123398999999998;0
0.00325;-0.00024479999999999999;3.1832435096886133e-06;-9.8100000000000005;0;0.39149595599999998;0
0.0033;-0.00024479999999999999;3.332402166469427e-06;-9.8100000000000005;0;0.3917579028;0
0.00335;-0.00024479999999999999;3.4861474719232273e-06;-9.8100000000000005;0;0.39201984839999998;0
0.0034;-0.00024479999999999999;3.6445487685975554e-06;-9.8100000000000005;0;0.39228179399999996;0
0.00345;-0.00024479999999999999;3.8076753921751182e-06;-9.8100000000000005;0;0.39254376119999995;0
0.0035;-0.00024479999999999999;3.9755966713785526e-06;-9.8100000000000005;0;0.39280570679999999;0
0.00355;-0.00024479999999999999;4.14838192786472e-06;-9.8100000000000005;0;0.39306765359999996;0
0.0036;-0.00024479999999999999;4.3261004761205646e-06;-9.8100000000000005;0;0.39332962079999995;0
0.00365;-0.00024479999999999999;4.5088216233664528e-06;-9.8100000000000005;0;0.39359156639999998;0
0.0037;-0.00024479999999999999;4.6966146694483911e-06;-9.8100000000000005;0;0.39385351200000002;0
0.00375;-0.00024479999999999999;4.8895489067395755e-06;-9.8100000000000005;0;0.39411545879999998;0
0.0038;-0.00024479999999999999;5.0876936200363146e-06;-9.8100000000000005;0;0.39437742479999999;0
0.00385;-0.00024479999999999999;5.2911180864578092e-06;-9.8100000000000005;0;0.39463937160000001;0
0.0039;-0.00024479999999999999;5.4998915753420464e-06;-9.8100000000000005;0;0.39490131719999999;0
0.00395;-0.00024479999999999999;5.7140833481394701e-06;-9.8100000000000005;0;0.39516326280000003;0
0.004;-0.00024479999999999999;5.9337626583230343e-06;-9.8100000000000005;0;0.39542523000000002;0
0.00405;-0.00024479999999999999;6.1589987512717663e-06;-9.8100000000000005;0;0.39568717559999994;0
0.0041;-0.00024479999999999999;6.3898608641831539e-06;-9.8100000000000005;0;0.39594912240000002;0
0.00415;-0.00024479999999999999;6.6264182259541768e-06;-9.8100000000000005;0;0.396211068;0
0.0042;-0.00024479999999999999;6.8687400570961619e-06;-9.8100000000000005;0;0.39647303519999993;0
0.00425;-0.00024479999999999999;7.1168955696176233e-06;-9.8100000000000005;0;0.39673498079999997;0
0.0043;-0.00024479999999999999;7.3709539669374235e-06;-9.8100000000000005;0;0.39699692759999999;0
0.00435;-0.00024479999999999999;7.6309844437650197e-06;-9.8100000000000005;0;0.39725887319999997;0
0.0044;-0.00024479999999999999;7.897056186018463e-06;-9.8100000000000005;0;0.39752084039999996;0
0.00445;-0.00024479999999999999;8.1692383707020384e-06;-9.8100000000000005;0;0.397782786;0
0.0045;-0.00024479999999999999;8.4476001658200777e-06;-9.8100000000000005;0;0.39804473159999998;0
0.00455;-0.00024479999999999999;8.732210730265747e-06;-9.8100000000000005;0;0.39830669879999997;0
0.0046;-0.00024479999999999999;9.0231392137236328e-06;-9.8100000000000005;0;0.39856864440000001;0
0.00465;-0.00024479999999999999;9.3204547565677879e-06;-9.8100000000000005;0;0.39883059119999997;0
0.0047;-0.00024479999999999999;9.6242264897524405e-06;-9.8100000000000005;0;0.39909253680000001;0
0.00475;-0.00024479999999999999;9.9345235347171027e-06;-9.8100000000000005;0;0.399354504;0
0.0048;-0.00024479999999999999;1.025141500328966e-05;-9.8100000000000005;0;0.39961644960000003;0
0.00485;-0.00024479999999999999;1.0574969997569543e-05;-9.8100000000000005;0;0.3998783964;0
0.0049;-0.00024479999999999999;1.090525760983808e-05;-9.8100000000000005;0;0.40014034199999998;0
0.00495;-0.00024479999999999999;1.1242346922451587e-05;-9.8100000000000005;0;0.40040230920000003;0
0.005;-0.00024479999999999999;1.1586307007736733e-05;-9.8100000000000005;0;0.40066425480000001;0
0.00505;-0.00024479999999999999;1.1937206927898959e-05;-9.8100000000000005;0;0.40092620039999999;0
0.0051;-0.00024479999999999999;1.2295115734907567e-05;-9.8100000000000005;0;0.40118814720000001;0
0.00515;-0.00024479999999999999;1.2660102470401561e-05;-9.8100000000000005;0;0.40145011319999996;0
0.0052;-0.00024479999999999999;1.3032236165585069e-05;-9.8100000000000005;0;0.40171205999999998;0
0.00525;-0.00024479999999999999;1.3411585841130891e-05;-9.8100000000000005;0;0.40197400559999996;0
0.0053;-0.00024479999999999999;1.379822050706773e-05;-9.8100000000000005;0;0.40223597279999995;0
0.00535;-0.00024479999999999999;1.4192209162686388e-05;-9.8100000000000005;0;0.40249791839999999;0
0.0054;-0.00024479999999999999;1.4593620796437967e-05;-9.8100000000000005;0;0.40275986519999996;0
0.00545;-0.00024479999999999999;1.5002524385829238e-05;-9.8100000000000005;0;0.40302181079999999;0
0.0055;-0.00024479999999999999;1.5418988897323617e-05;-9.8100000000000005;0;0.40328377799999998;0
0.00555;-0.00024479999999999999;1.5843083286233616e-05;-9.8100000000000005;0;0.40354572360000002;0
0.0056;-0.00024479999999999999;1.6274876496621743e-05;-9.8100000000000005;0;0.4038076692;0
0.00565;-0.00024479999999999999;1.6714437461204549e-05;-9.8100000000000005;0;0.40406961599999996;0
0.0057;-0.00024479999999999999;1.7161835101242102e-05;-9.8100000000000005;0;0.40433158199999997;0
0.00575;-0.00024479999999999999;1.7617138326442021e-05;-9.8100000000000005;0;0.40459352879999999;0
0.0058;-0.00024479999999999999;1.8080416034857755e-05;-9.8100000000000005;0;0.40485547440000003;0
0.00585;-0.00024479999999999999;1.855173711277778e-05;-9.8100000000000005;0;0.40511741999999995;0
0.0059;-0.0004908;1.9031170434638873e-05;-9.8100000000000005;0;0.40537938719999994;0
0.00595;-0.0004908;1.9518784862912338e-05;-9.8100000000000005;0;0.40564133400000002;0
0.006;-0.0004908;2.0014649248005189e-05;-9.8100000000000005;0;0.4059032796;0
0.00605;-0.0004908;2.0518832428158406e-05;-9.8100000000000005;0;0.40616522519999998;0
0.0061;-0.0004908;2.1031403229351536e-05;-9.8100000000000005;0;0.40642719239999997;0
0.00615;-0.0004908;2.1552430465191571e-05;-9.8100000000000005;0;0.40668913800000001;0
0.0062;-0.0004908;2.2081982936820805e-05;-9.8100000000000005;0;0.40695108479999997;0
0.00625;-0.0004908;2.2620129432799087e-05;-9.8100000000000005;0;0.40721305079999998;0
0.0063;-0.0004908;2.3166938729021407e-05;-9.8100000000000005;0;0.4074749976;0
0.00635;-0.0004908;2.372247958861e-05;-9.8100000000000005;0;0.40773694319999998;0
0.0064;-0.0004908;2.4286820761799455e-05;-9.8100000000000005;0;0.40799888880000001;0
0.00645;-0.0004908;2.4860030985858162e-05;-9.8100000000000005;0;0.40826085600000001;0
0.0065;-0.0004908;2.5442178984966894e-05;-9.8100000000000005;0;0.40852280160000004;0
0.00655;-0.0004908;2.6033333470127132e-05;-9.8100000000000005;0;0.40878474840000001;0
0.0066;-0.0004908;2.6633563139056119e-05;-9.8100000000000005;0;0.40904669399999999;0
0.00665;-0.0004908;2.72429366760922e-05;-9.8100000000000005;0;0.40930866120000003;0
0.0067;-0.0004908;2.7861522752076032e-05;-9.8100000000000005;0;0.40957060679999996;0
0.00675;-0.0004908;2.8489390024276725e-05;-9.8100000000000005;0;0.40983255359999998;0
0.0068;-0.0004908;2.9126607136255525e-05;-9.8100000000000005;0;0.41009449920000002;0
0.00685;-0.0004908;2.9773242717799273e-05;-9.8100000000000005;0;0.41035646640000001;0
0.0069;-0.0004908;3.0429365384790772e-05;-9.8100000000000005;0;0.41061841199999999;0
0.00695;-0.0004908;3.1095043739128584e-05;-9.8100000000000005;0;0.41088035759999997;0
0.007;-0.0004908;3.1770346368611353e-05;-9.8100000000000005;0;0.41114232479999996;0
0.00705;-0.0004908;3.2455341846836137e-05;-9.8100000000000005;0;0.41140427039999999;0
0.0071;-0.0004908;3.3150098733111625e-05;-9.8100000000000005;0;0.41166621719999996;0
0.00715;-0.0004908;3.3854685572342119e-05;-9.8100000000000005;0;0.4119281628;0
0.0072;-0.00073559999999999999;3.4569170894929786e-05;-9.8100000000000005;0;0.41219012999999999;0
0.00725;-0.00073559999999999999;3.529362321667691e-05;-9.8100000000000005;0;0.41245207560000002;0
0.0073;-0.00073559999999999999;3.6028111038684637e-05;-9.8100000000000005;0;0.41271402239999999;0
0.00735;-0.00073559999999999999;3.677270284724022e-05;-9.8100000000000005;0;0.41297596799999997;0
0.0074;-0.00073559999999999999;3.7527467113734671e-05;-9.8100000000000005;0;0.41323793520000002;0
0.00745;-0.00073559999999999999;3.8292472294546143e-05;-9.8100000000000005;0;0.4134998808;0
0.0075;-0.00073559999999999999;3.9067786830942507e-05;-9.8100000000000005;0;0.41376182640000003;0
0.00755;-0.00073559999999999999;3.9853479148987725e-05;-9.8100000000000005;0;0.4140237732;0
0.0076;-0.00073559999999999999;4.0649617659428998e-05;-9.8100000000000005;0;0.41428573919999995;0
0.00765;-0.00073559999999999999;4.145627075759531e-05;-9.8100000000000005;0;0.41454768600000003;0
0.0077;-0.00073559999999999999;4.2273506823320034e-05;-9.8100000000000005;0;0.41480963159999995;0
0.00775;-0.00073559999999999999;4.3101394220799965e-05;-9.8100000000000005;0;0.41507157719999999;0
0.0078;-0.00073559999999999999;4.3940001298529971e-05;-9.8100000000000005;0;0.41533354439999998;0
0.00785;-0.00073559999999999999;4.4789396389177694e-05;-9.8100000000000005;0;0.41559549119999994;0
0.0079;-0.00073559999999999999;4.5649647809498599e-05;-9.8100000000000005;0;0.41585743679999998;0
0.00795;-0.00073559999999999999;4.6520823860230757e-05;-9.8100000000000005;0;0.41611940399999997;0
0.008;-0.00073559999999999999;4.7402992825981439e-05;-9.8100000000000005;0;0.41638134960000001;0
0.00805;-0.00073559999999999999;4.8296222975138089e-05;-9.8100000000000005;0;0.41664329519999999;0
0.0081;-0.00073559999999999999;4.9200582559775847e-05;-9.8100000000000005;0;0.41690524199999995;0
0.00815;-0.00073559999999999999;5.0116139815527021e-05;-9.8100000000000005;0;0.41716720800000001;0
0.0082;-0.00073559999999999999;5.1042962961517902e-05;-9.8100000000000005;0;0.41742915479999998;0
0.00825;-0.00073559999999999999;5.198112020022958e-05;-9.8100000000000005;0;0.41769110040000001;0
0.0083;-0.00073559999999999999;5.2930679717430984e-05;-9.8100000000000005;0;0.41795304599999999;0
0.00835;-0.00073559999999999999;5.3891709682052195e-05;-9.8100000000000005;0;0.41821501320000004;0
0.0084;-0.00073559999999999999;5.4864278246100607e-05;-9.8100000000000005;0;0.41847696000000001;0
0.00845;-0.00073559999999999999;5.5848453544546989e-05;-9.8100000000000005;0;0.41873890559999999;0
0.0085;-0.00098160000000000001;5.6844303695228707e-05;-9.8100000000000005;0;0.41900085119999997;0
0.00855;-0.00098160000000000001;5.7851896798766533e-05;-9.8100000000000005;0;0.41926281839999996;0
0.0086;-0.00098160000000000001;5.8871300938428399e-05;-9.8100000000000005;0;0.41952476399999999;0
0.00865;-0.00098160000000000001;5.9902584180054879e-05;-9.8100000000000005;0;0.41978671080000002;0
0.0087;-0.00098160000000000001;6.0945814571953977e-05;-9.8100000000000005;0;0.42004865639999994;0
0.00875;-0.00098160000000000001;6.2001060144795819e-05;-9.8100000000000005;0;0.42031062359999999;0
0.0088;-0.00098160000000000001;6.3068388911511611e-05;-9.8100000000000005;0;0.42057256919999997;0
0.00885;-0.00098160000000000001;6.4147868867202098e-05;-9.8100000000000005;0;0.4208345148;0
0.0089;-0.00098160000000000001;6.5239567989013695e-05;-9.8100000000000005;0;0.42109648199999999;0
0.00895;-0.00098160000000000001;6.6343554236069851e-05;-9.8100000000000005;0;0.42135842879999996;0
0.009;-0.00098160000000000001;6.7459895549347372e-05;-9.8100000000000005;0;0.4216203744;0
0.00905;-0.00098160000000000001;6.8588659851575372e-05;-9.8100000000000005;0;0.42188231999999998;0
0.0091;-0.00098160000000000001;6.9729915047153334e-05;-9.8100000000000005;0;0.42214428720000002;0
0.00915;-0.00098160000000000001;7.0883729022031672e-05;-9.8100000000000005;0;0.4224062328;0
0.0092;-0.00098160000000000001;7.2050169643615619e-05;-9.8100000000000005;0;0.42266817959999997;0
0.00925;-0.00098160000000000001;7.3229304760674094e-05;-9.8100000000000005;0;0.42293012520000001;0
0.0093;-0.00098160000000000001;7.4421202203215039e-05;-9.8100000000000005;0;0.4231920924;0
0.00935;-0.00098160000000000001;7.5625929782428142e-05;-9.8100000000000005;0;0.42345403800000003;0
0.0094;-0.00098160000000000001;7.6843555290526149e-05;-9.8100000000000005;0;0.42371598359999996;0
0.00945;-0.00098160000000000001;7.8074146500702531e-05;-9.8100000000000005;0;0.42397793040000004;0
0.0095;-0.00098160000000000001;7.9317771166982119e-05;-9.8100000000000005;0;0.42423989760000003;0
0.00955;-0.00098160000000000001;8.0574497024159708e-05;-9.8100000000000005;0;0.42450184319999995;0
0.0096;-0.00098160000000000001;8.1844391787675041e-05;-9.8100000000000005;0;0.42476378879999999;0
0.00965;-0.00098160000000000001;8.3127523153506971e-05;-9.8100000000000005;0;0.42502575599999998;0
0.0097;-0.00098160000000000001;8.4423958798108089e-05;-9.8100000000000005;0;0.42528770160000001;0
0.00975;-0.00098160000000000001;8.5733766378269223e-05;-9.8100000000000005;0;0.42554964839999998;0
0.0098;-0.001224;8.7057013531023758e-05;-9.8100000000000005;0;0.42581159399999996;0
0.00985;-0.001224;8.8393767873562416e-05;-9.8100000000000005;0;0.42607356120000001;0
0.0099;-0.001224;8.9744097003133038e-05;-9.8100000000000005;0;0.42633550679999999;0
0.00995;-0.001224;9.1108068496919544e-05;-9.8100000000000005;0;0.42659745240000002;0
0.01;-0.001224;9.2485749911957028e-05;-9.8100000000000005;0;0.42685939919999999;0
0.01005;-0.001224;9.3877208785031306e-05;-9.8100000000000005;0;0.42712136519999994;0
0.0101;-0.001224;9.5282512632568258e-05;-9.8100000000000005;0;0.42738331200000002;0
0.01015;-0.001224;9.6701728950554251e-05;-9.8100000000000005;0;0.42764525759999999;0
0.0102;-0.001224;9.8134925214415247e-05;-9.8100000000000005;0;0.42790720319999997;0
0.01025;-0.001224;9.9582168878915988e-05;-9.8100000000000005;0;0.42816917039999997;0
0.0103;-0.001224;0.00010104352737808126;-9.8100000000000005;0;0.42843111719999999;0
0.01035;-0.001224;0.00010251906812507427;-9.8100000000000005;0;0.42869306279999997;0
0.0104;-0.001224;0.00010400885851210713;-9.8100000000000005;0;0.42895500839999995;0
0.01045;-0.001224;0.00010551296591032994;-9.8100000000000005;0;0.42921697559999999;0
0.0105;-0.001224;0.00010703145766975213;-9.8100000000000005;0;0.42947892119999997;0
0.01055;-0.001224;0.00010856440111912072;-9.8100000000000005;0;0.42974086799999994;0
0.0106;-0.001224;0.00011011186356582561;-9.8100000000000005;0;0.430002834;0
0.01065;-0.001224;0.00011167391229580494;-9.8100000000000005;0;0.43026478079999997;0
0.0107;-0.001224;0.00011325061457344494;-9.8100000000000005;0;0.4305267264;0
0.01075;-0.001224;0.0001148420376414689;-9.8100000000000005;0;0.43078867199999998;0
0.0108;-0.001224;0.00011644824872085941;-9.8100000000000005;0;0.43105063920000003;0
0.01085;-0.001224;0.0001180693150107247;-9.8100000000000005;0;0.431312586;0
0.0109;-0.001224;0.00011970530368823232;-9.8100000000000005;0;0.43157453159999998;0
0.01095;-0.001224;0.00012135628190849238;-9.8100000000000005;0;0.43183647720000001;0
0.011;-0.001224;0.00012302231680445753;-9.8100000000000005;0;0.4320984444;0
0.01105;-0.001224;0.00012470347548682883;-9.8100000000000005;0;0.43236038999999998;0
0.0111;-0.001224;0.00012639982504394985;-9.8100000000000005;0;0.43262233680000001;0
0.01115;-0.001224;0.00012811143254170716;-9.8100000000000005;0;0.43288428240000004;0
0.0112;-0.001224;0.00012983836502344174;-9.8100000000000005;0;0.43314624960000003;0
0.01125;-0.001224;0.00013158068950983777;-9.8100000000000005;0;0.43340819519999996;0
0.0113;-0.001224;0.00013333847299881098;-9.8100000000000005;0;0.43367014079999999;0
0.01135;-0.001224;0.00013511178246544992;-9.8100000000000005;0;0.43393208759999996;0
0.0114;-0.0014759999999999999;0.0001369006848618693;-9.8100000000000005;0;0.43419405479999995;0
0.01145;-0.0014759999999999999;0.00013870524711713368;-9.8100000000000005;0;0.43445600039999999;0
0.0115;-0.0014759999999999999;0.00014052553613715777;-9.8100000000000005;0;0.43471794599999997;0
0.01155;-0.0014759999999999999;0.00014236161880461278;-9.8100000000000005;0;0.43497991320000001;0
0.0116;-0.0014759999999999999;0.00014421356197880303;-9.8100000000000005;0;0.43524185879999999;0
0.01165;-0.0014759999999999999;0.00014608143249558394;-9.8100000000000005;0;0.43550380559999996;0
0.0117;-0.0014759999999999999;0.0001479652971672626;-9.8100000000000005;0;0.4357657512;0
0.01175;-0.0014759999999999999;0.00014986522278250431;-9.8100000000000005;0;0.43602771839999999;0
0.0118;-0.0014759999999999999;0.00015178127610620263;-9.8100000000000005;0;0.43628966400000002;0
0.01185;-0.0014759999999999999;0.00015371352387942238;-9.8100000000000005;0;0.43655160959999995;0
0.0119;-0.0014759999999999999;0.0001556620328192636;-9.8100000000000005;0;0.43681355640000002;0
0.01195;-0.0014759999999999999;0.00015762686961878647;-9.8100000000000005;0;0.43707552360000002;0
0.012;-0.0014759999999999999;0.00015960810094689968;-9.8100000000000005;0;0.4373374692;0
0.01205;-0.0014759999999999999;0.00016160579344826076;-9.8100000000000005;0;0.43759941479999998;0
0.0121;-0.0014759999999999999;0.00016362001374318948;-9.8100000000000005;0;0.4378613616;0
0.01215;-0.0014759999999999999;0.00016565082842754311;-9.8100000000000005;0;0.4381233276;0
0.0122;-0.0014759999999999999;0.00016769830407264852;-9.8100000000000005;0;0.43838527439999997;0
0.01225;-0.0014759999999999999;0.00016976250722518414;-9.8100000000000005;0;0.43864721999999995;0
0.0123;-0.0014759999999999999;0.00017184350440707419;-9.8100000000000005;0;0.43890918719999999;0
0.01235;-0.0014759999999999999;0.00017394136211540832;-9.8100000000000005;0;0.43917113279999997;0
0.0124;-0.0014759999999999999;0.00017605614682232986;-9.8100000000000005;0;0.43943307840000001;0
0.01245;-0.0014759999999999999;0.00017818792497494934;-9.8100000000000005;0;0.43969502519999998;0
0.0125;-0.0014759999999999999;0.00018033676299521298;-9.8100000000000005;0;0.43995699239999997;0
0.01255;-0.0014759999999999999;0.00018250272727984881;-9.8100000000000005;0;0.440218938;0
0.0126;-0.0014759999999999999;0.00018468588420023511;-9.8100000000000005;0;0.44048088359999998;0
0.01265;-0.0014759999999999999;0.00018688630010231446;-9.8100000000000005;0;0.44074283040000001;0
0.0127;-0.0014759999999999999;0.00018910404130648113;-9.8100000000000005;0;0.44100479640000001;0
0.01275;-0.0017160000000000001;0.00019133917410751536;-9.8100000000000005;0;0.44126674319999998;0
0.0128;-0.0017160000000000001;0.00019359176477443791;-9.8100000000000005;0;0.44152868880000001;0
0.01285;-0.0017160000000000001;0.00019586187955044406;-9.8100000000000005;0;0.44179063439999994;0
0.0129;-0.0017160000000000001;0.00019814958465279824;-9.8100000000000005;0;0.44205260159999998;0
0.01295;-0.0017160000000000001;0.0002004549462727214;-9.8100000000000005;0;0.44231454719999996;0
0.013;-0.0017160000000000001;0.00020277803057531913;-9.8100000000000005;0;0.44257649400000004;0
0.01305;-0.0017160000000000001;0.00020511890369944919;-9.8100000000000005;0;0.44283843959999997;0
0.0131;-0.0017160000000000001;0.0002074776317576492;-9.8100000000000005;0;0.44310040679999996;0
0.01315;-0.0017160000000000001;0.00020985428083602472;-9.8100000000000005;0;0.44336235239999999;0
0.0132;-0.0017160000000000001;0.00021224891699416385;-9.8100000000000005;0;0.44362429919999996;0
0.01325;-0.0017160000000000001;0.00021466160626501106;-9.8100000000000005;0;0.44388626520000002;0
0.0133;-0.0017160000000000001;0.00021709241465479593;-9.8100000000000005;0;0.44414821199999999;0
0.01335;-0.0017160000000000001;0.00021954140814292751;-9.8100000000000005;0;0.44441015759999997;0
0.0134;-0.0017160000000000001;0.00022200865268188856;-9.8100000000000005;0;0.4446721032;0
0.01345;-0.0017160000000000001;0.00022449421419713726;-9.8100000000000005;0;0.44493407039999999;0
0.0135;-0.0017160000000000001;0.00022699815858702194;-9.8100000000000005;0;0.44519601600000003;0
0.01355;-0.0017160000000000001;0.00022952055172266198;-9.8100000000000005;0;0.4454579628;0
0.0136;-0.0017160000000000001;0.00023206145944786995;-9.8100000000000005;0;0.44571990840000003;0
0.01365;-0.0017160000000000001;0.00023462094757903916;-9.8100000000000005;0;0.44598187560000002;0
0.0137;-0.0017160000000000001;0.00023719908190504495;-9.8100000000000005;0;0.44624382119999995;0
0.01375;-0.0017160000000000001;0.00023979592818716046;-9.8100000000000005;0;0.44650576679999998;0
0.0138;-0.0017160000000000001;0.00024241155215892971;-9.8100000000000005;0;0.4467677136;0
0.01385;-0.0017160000000000001;0.00024504601952611186;-9.8100000000000005;0;0.4470296808;0
0.0139;-0.0017160000000000001;0.00024769939596653277;-9.8100000000000005;0;0.44729162639999998;0
0.01395;-0.0017160000000000001;0.00025037174713004408;-9.8100000000000005;0;0.44755357199999996;0
0.014;-0.0017160000000000001;0.00025306313863835274;-9.8100000000000005;0;0.4478155392;0
0.01405;-0.0019679999999999997;0.0002557736360850021;-9.8100000000000005;0;0.44807748479999998;0
0.0141;-0.0019679999999999997;0.00025850330503521593;-9.8100000000000005;0;0.44833943159999995;0
0.01415;-0.0019679999999999997;0.00026125221102581429;-9.8100000000000005;0;0.44860137719999998;0
0.0142;-0.0019679999999999997;0.00026402041956512289;-9.8100000000000005;0;0.44886334439999998;0
0.01425;-0.0019679999999999997;0.00026680799613288173;-9.8100000000000005;0;0.44912529000000001;0
0.0143;-0.0019679999999999997;0.00026961500618013297;-9.8100000000000005;0;0.44938723559999999;0
0.01435;-0.0019679999999999997;0.0002724415151291222;-9.8100000000000005;0;0.44964918240000001;0
0.0144;-0.0019679999999999997;0.00027528758837320046;-9.8100000000000005;0;0.4499111496;0
0.01445;-0.0019679999999999997;0.00027815329127674855;-9.8100000000000005;0;0.45017309519999998;0
0.0145;-0.0019679999999999997;0.00028103868917504158;-9.8100000000000005;0;0.45043504080000002;0
0.01455;-0.0019679999999999997;0.00028394384737418069;-9.8100000000000005;0;0.45069698759999999;0
0.0146;-0.0019679999999999997;0.00028686883115098036;-9.8100000000000005;0;0.45095895359999993;0
0.01465;-0.0019679999999999997;0.00028981370575288537;-9.8100000000000005;0;0.45122090040000001;0
0.0147;-0.0019679999999999997;0.00029277853639785018;-9.8100000000000005;0;0.45148284599999994;0
0.01475;-0.0019679999999999997;0.00029576338827426386;-9.8100000000000005;0;0.45174479159999997;0
0.0148;-0.0019679999999999997;0.0002987683265408293;-9.8100000000000005;0;0.45200675879999996;0
0.01485;-0.0019679999999999997;0.000301793416326488;-9.8100000000000005;0;0.4522687044;0
0.0149;-0.0019679999999999997;0.0003048387227303075;-9.8100000000000005;0;0.45253065119999997;0
0.01495;-0.0019679999999999997;0.00030790431082139088;-9.8100000000000005;0;0.45279261839999996;0
0.015;-0.0019679999999999997;0.00031099024563877145;-9.8100000000000005;0;0.45305456399999999;0
0.01505;-0.0019679999999999997;0.00031409659219133024;-9.8100000000000005;0;0.45331650959999997;0
0.0151;-0.0019679999999999997;0.00031722341545767564;-9.8100000000000005;0;0.45357845639999994;0
0.01515;-0.0019679999999999997;0.00032037078038606832;-9.8100000000000005;0;0.4538404224;0
0.0152;-0.0019679999999999997;0.00032353875189430865;-9.8100000000000005;0;0.45410236919999997;0
0.01525;-0.0022079999999999999;0.00032672739486963863;-9.8100000000000005;0;0.4543643148;0
0.0153;-0.0022079999999999999;0.00032993677416866827;-9.8100000000000005;0;0.45462626039999998;0
0.01535;-0.0022079999999999999;0.0003331669546172304;-9.8100000000000005;0;0.45488822760000003;0
0.0154;-0.0022079999999999999;0.00033641800101034681;-9.8100000000000005;0;0.45515017319999995;0
0.01545;-0.0022079999999999999;0.0003396899781120672;-9.8100000000000005;0;0.45541211999999998;0
0.0155;-0.0022079999999999999;0.00034298295065541119;-9.8100000000000005;0;0.45567406559999996;0
0.01555;-0.0022079999999999999;0.00034629698334226347;-9.8100000000000005;0;0.45593603279999995;0
0.0156;-0.0022079999999999999;0.00034963214084327617;-9.8100000000000005;0;0.45619797839999998;0
0.01565;-0.0022079999999999999;0.0003529884877977636;-9.8100000000000005;0;0.45645992520000001;0
0.0157;-0.0022079999999999999;0.00035636608881359639;-9.8100000000000005;0;0.45672187079999993;0
0.01575;-0.0022079999999999999;0.00035976500846715364;-9.8100000000000005;0;0.45698383799999998;0
0.0158;-0.0022079999999999999;0.00036318531130316844;-9.8100000000000005;0;0.45724578359999996;0
0.01585;-0.0022079999999999999;0.00036662706183463828;-9.8100000000000005;0;0.45750772919999999;0
0.0159;-0.0022079999999999999;0.00037009032454276154;-9.8100000000000005;0;0.45776969639999998;0
0.01595;-0.0022079999999999999;0.0003735751638768315;-9.8100000000000005;0;0.45803164200000002;0
0.016;-0.0022079999999999999;0.0003770816442540984;-9.8100000000000005;0;0.45829358879999998;0
0.01605;-0.0022079999999999999;0.00038060983005972984;-9.8100000000000005;0;0.45855553439999996;0
0.0161;-0.0022079999999999999;0.0003841597856466645;-9.8100000000000005;0;0.45881750160000001;0
0.01615;-0.0022079999999999999;0.00038773157533556466;-9.8100000000000005;0;0.45907944719999999;0
0.0162;-0.0022079999999999999;0.00039132526341466084;-9.8100000000000005;0;0.45934139399999996;0
0.01625;-0.0022079999999999999;0.00039494091413970559;-9.8100000000000005;0;0.45960333959999999;0
0.0163;-0.0022079999999999999;0.00039857859173385882;-9.8100000000000005;0;0.45986530679999998;0
0.01635;-0.0022079999999999999;0.00040223836038756698;-9.8100000000000005;0;0.46012725240000002;0
0.0164;-0.0022079999999999999;0.00040592028425852404;-9.8100000000000005;0;0.46038919799999994;0
0.01645;-0.0022079999999999999;0.00040962442747150772;-9.8100000000000005;0;0.46065114480000002;0
0.0165;-0.0022079999999999999;0.00041335085411833388;-9.8100000000000005;0;0.46091311079999997;0
0.01655;-0.0022079999999999999;0.00041709962825771624;-9.8100000000000005;0;0.46117505759999994;0
0.0166;-0.0024480000000000001;0.00042087081391523057;-9.8100000000000005;0;0.46143700319999997;0
0.01665;-0.0024480000000000001;0.00042466447508314898;-9.8100000000000005;0;0.46169897039999996;0
0.0167;-0.0024480000000000001;0.00042848067572037724;-9.8100000000000005;0;0.461960916;0
0.01675;-0.0024480000000000001;0.00043231947975238508;-9.8100000000000005;0;0.46222286279999997;0
0.0168;-0.0024480000000000001;0.00043618095107104824;-9.8100000000000005;0;0.46248480839999995;0
0.01685;-0.0024480000000000001;0.00044006515353460453;-9.8100000000000005;0;0.46274677559999999;0
0.0169;-0.0024480000000000001;0.00044397215096752217;-9.8100000000000005;0;0.46300872119999997;0
0.01695;-0.0024480000000000001;0.00044790200716043861;-9.8100000000000005;0;0.46327066680000001;0
0.017;-0.0024480000000000001;0.00045185478587002863;-9.8100000000000005;0;0.46353261359999998;0
0.01705;-0.0024480000000000001;0.0004558305508189349;-9.8100000000000005;0;0.46379457959999992;0
0.0171;-0.0024480000000000001;0.00045982936569563608;-9.8100000000000005;0;0.4640565264;0
0.01715;-0.0024480000000000001;0.00046385129415441208;-9.8100000000000005;0;0.46431847199999998;0
0.0172;-0.0024480000000000001;0.00046789639981518669;-9.8100000000000005;0;0.46458041759999996;0
0.01725;-0.0024480000000000001;0.00047196474626344791;-9.8100000000000005;0;0.46484238479999995;0
0.0173;-0.0024480000000000001;0.00047605639705018828;-9.8100000000000005;0;0.46510433159999998;0
0.01735;-0.0024480000000000001;0.00048017141569175505;-9.8100000000000005;0;0.46536627719999996;0
0.0174;-0.0024480000000000001;0.00048430986566978931;-9.8100000000000005;0;0.46562822279999994;0
0.01745;-0.0024480000000000001;0.00048847181043111282;-9.8100000000000005;0;0.46589018999999998;0
0.0175;-0.0024480000000000001;0.00049265731338764913;-9.8100000000000005;0;0.46615213559999996;0
0.01755;-0.0024480000000000001;0.00049686643791630077;-9.8100000000000005;0;0.46641408239999993;0
0.0176;-0.0024480000000000001;0.00050109924735888996;-9.8100000000000005;0;0.46667604839999999;0
0.01765;-0.0024480000000000001;0.00050535580502202547;-9.8100000000000005;0;0.46693799519999996;0
0.0177;-0.0024480000000000001;0.00050963617417702615;-9.8100000000000005;0;0.46719994079999999;0
0.01775;-0.0024480000000000001;0.00051394041805983269;-9.8100000000000005;0;0.46746188639999997;0
0.0178;-0.0024480000000000001;0.00051826859987088561;-9.8100000000000005;0;0.46772385360000002;0
0.01785;-0.0026999999999999997;0.00052262078277506548;-9.8100000000000005;0;0.4679857992;0
0.0179;-0.0026999999999999997;0.00052699702990156069;-9.8100000000000005;0;0.46824774599999996;0
0.01795;-0.0026999999999999997;0.0005313974043437994;-9.8100000000000005;0;0.4685096916;0
0.018;-0.0026999999999999997;0.00053582196915933516;-9.8100000000000005;0;0.46877165879999999;0
0.01805;-0.0026999999999999997;0.00054027078736976067;-9.8100000000000005;0;0.46903360439999997;0
0.0181;-0.0026999999999999997;0.00054474392196060301;-9.8100000000000005;0;0.46929555119999999;0
0.01815;-0.0026999999999999997;0.00054924143588125558;-9.8100000000000005;0;0.46955749680000003;0
0.0182;-0.0026999999999999997;0.00055376339204485532;-9.8100000000000005;0;0.46981946400000002;0
0.01825;-0.0026999999999999997;0.00055830985332817711;-9.8100000000000005;0;0.47008140959999994;0
0.0183;-0.0026999999999999997;0.00056288088257157645;-9.8100000000000005;0;0.47034335519999998;0
0.01835;-0.0026999999999999997;0.00056747654257885579;-9.8100000000000005;0;0.47060530199999995;0
0.0184;-0.0026999999999999997;0.00057209689611721713;-9.8100000000000005;0;0.47086726800000001;0
0.01845;-0.0026999999999999997;0.0005767420059170997;-9.8100000000000005;0;0.47112921479999997;0
0.0185;-0.0026999999999999997;0.00058141193467215163;-9.8100000000000005;0;0.47139116039999995;0
0.01855;-0.0026999999999999997;0.00058610674503907728;-9.8100000000000005;0;0.4716531276;0
0.0186;-0.0026999999999999997;0.00059082649963759001;-9.8100000000000005;0;0.47191507319999998;0
0.01865;-0.0026999999999999997;0.00059557126105028797;-9.8100000000000005;0;0.47217701999999995;0
0.0187;-0.0026999999999999997;0.00060034109182256876;-9.8100000000000005;0;0.47243896559999998;0
0.01875;-0.0026999999999999997;0.00060513605446253413;-9.8100000000000005;0;0.47270093279999997;0
0.0188;-0.0026999999999999997;0.00060995621144089565;-9.8100000000000005;0;0.47296287840000001;0
0.01885;-0.0026999999999999997;0.00061480162519086869;-9.8100000000000005;0;0.47322482399999999;0
0.0189;-0.0026999999999999997;0.00061967235810810842;-9.8100000000000005;0;0.47348677080000001;0
0.01895;-0.0026999999999999997;0.00062456847255055428;-9.8100000000000005;0;0.47374873679999996;0
0.019;-0.0026999999999999997;0.00062949003083841452;-9.8100000000000005;0;0.47401068359999998;0
0.01905;-0.0026999999999999997;0.00063443709525401308;-9.8100000000000005;0;0.47427262919999996;0
0.0191;-0.0029399999999999999;0.00063940972804171292;-9.8100000000000005;0;0.47453457479999994;0
0.01915;-0.0029399999999999999;0.00064440799140781256;-9.8100000000000005;0;0.47479654199999999;0
0.0192;-0.0029399999999999999;0.00064943194752047041;-9.8100000000000005;0;0.47505848879999996;0
0.01925;-0.0029399999999999999;0.00065448165850961039;-9.8100000000000005;0;0.47532043439999994;0
0.0193;-0.0029399999999999999;0.00065955718646678804;-9.8100000000000005;0;0.47558240159999998;0
0.01935;-0.0029399999999999999;0.00066465859344514409;-9.8100000000000005;0;0.47584434719999996;0
0.0194;-0.0029399999999999999;0.00066978594145930233;-9.8100000000000005;0;0.4761062928;0
0.01945;-0.0029399999999999999;0.00067493929248522251;-9.8100000000000005;0;0.47636823959999997;0
0.0195;-0.0029399999999999999;0.00068011870846017785;-9.8100000000000005;0;0.47663020560000002;0
0.01955;-0.0029399999999999999;0.00068532425128261967;-9.8100000000000005;0;0.47689215239999999;0
0.0196;-0.0029399999999999999;0.00069055598281210267;-9.8100000000000005;0;0.47715409799999997;0
0.01965;-0.0029399999999999999;0.00069581396486917185;-9.8100000000000005;0;0.47741604360000001;0
0.0197;-0.0029399999999999999;0.00070109825923525624;-9.8100000000000005;0;0.4776780108;0
0.01975;-0.0029399999999999999;0.00070640892765263706;-9.8100000000000005;0;0.47793995759999996;0
0.0198;-0.0029399999999999999;0.00071174603182428081;-9.8100000000000005;0;0.4782019032;0
0.01985;-0.0029399999999999999;0.000717109633413777;-9.8100000000000005;0;0.47846384879999992;0
0.0199;-0.0029399999999999999;0.00072249979404526339;-9.8100000000000005;0;0.47872581599999997;0
0.01995;-0.0029399999999999999;0.00072791657530328136;-9.8100000000000005;0;0.47898776159999995;0
0.02;-0.0029399999999999999;0.00073336003873274321;-9.8100000000000005;0;0.47924970840000003;0
0.02005;-0.003192;0.00073883024583878607;-9.8100000000000005;0;0.47951165399999995;0
0.0201;-0.003192;0.00074432725808671002;-9.8100000000000005;0;0.47977362119999994;0
0.02015;-0.003192;0.000749851136901852;-9.8100000000000005;0;0.48003556679999998;0
0.0202;-0.003192;0.00075540194366953417;-9.8100000000000005;0;0.48029751239999996;0
0.02025;-0.003192;0.00076097973973493786;-9.8100000000000005;0;0.48055947960000001;0
0.0203;-0.003192;0.00076658458640304239;-9.8100000000000005;0;0.48082142639999997;0
0.02035;-0.003192;0.00077221654493846766;-9.8100000000000005;0;0.48108337199999995;0
0.0204;-0.003192;0.00077787567656546427;-9.8100000000000005;0;0.48134531759999999;0
0.02045;-0.003192;0.00078356204246774613;-9.8100000000000005;0;0.48160728479999998;0
0.0205;-0.003192;0.00078927570378845046;-9.8100000000000005;0;0.48186923040000001;0
0.02055;-0.003192;0.00079501672163001091;-9.8100000000000005;0;0.48213117719999998;0
0.0206;-0.003192;0.00080078515705407605;-9.8100000000000005;0;0.48239312280000002;0
0.02065;-0.003192;0.00080658107108141528;-9.8100000000000005;0;0.48265509000000001;0
0.0207;-0.003192;0.0008124045246918352;-9.8100000000000005;0;0.48291703559999999;0
0.02075;-0.003192;0.00081825557882405579;-9.8100000000000005;0;0.48317898119999997;0
0.0208;-0.003192;0.00082413429437565809;-9.8100000000000005;0;0.48344092799999999;0
0.02085;-0.003192;0.00083004073220296014;-9.8100000000000005;0;0.48370289519999998;0
0.0209;-0.003192;0.00083597495312092221;-9.8100000000000005;0;0.48396484079999996;0
0.02095;-0.003192;0.00084193701790310908;-9.8100000000000005;0;0.48422678639999994;0
0.021;-0.0034320000000000002;0.00084792698728148729;-9.8100000000000005;0;0.48448875359999999;0
0.02105;-0.0034320000000000002;0.00085394492194645129;-9.8100000000000005;0;0.48475069919999997;0
0.0211;-0.0034320000000000002;0.00085999088254666664;-9.8100000000000005;0;0.48501264599999994;0
0.02115;-0.0034320000000000002;0.00086606492968895304;-9.8100000000000005;0;0.48527459159999997;0
0.0212;-0.0034320000000000002;0.00087216712393826934;-9.8100000000000005;0;0.48553655879999996;0
0.02125;-0.0034320000000000002;0.00087829752581755388;-9.8100000000000005;0;0.4857985044;0
0.0213;-0.0034320000000000002;0.0008844561958076644;-9.8100000000000005;0;0.48606044999999998;0
0.02135;-0.0034320000000000002;0.00089064319434725323;-9.8100000000000005;0;0.4863223968;0
0.0214;-0.0034320000000000002;0.00089685858183271737;-9.8100000000000005;0;0.48658436399999999;0
0.02145;-0.0034320000000000002;0.00090310241861808369;-9.8100000000000005;0;0.48684630959999997;0
0.0215;-0.0034320000000000002;0.00090937476501491699;-9.8100000000000005;0;0.48710825520000001;0
0.02155;-0.0034320000000000002;0.00091567568129220409;-9.8100000000000005;0;0.48737020079999993;0
0.0216;-0.0034320000000000002;0.00092200522767631708;-9.8100000000000005;0;0.48763216799999998;0
0.02165;-0.0034320000000000002;0.00092836346435087641;-9.8100000000000005;0;0.4878941148;0
0.0217;-0.0034320000000000002;0.00093475045145665779;-9.8100000000000005;0;0.48815606039999992;0
0.02175;-0.0034320000000000002;0.00094116624909152237;-9.8100000000000005;0;0.48841800599999996;0
0.0218;-0.0034320000000000002;0.00094761091731031255;-9.8100000000000005;0;0.48867997319999995;0
0.02185;-0.0034320000000000002;0.00095408451612476002;-9.8100000000000005;0;0.48894191879999999;0
0.0219;-0.0036839999999999998;0.00096058710550340424;-9.8100000000000005;0;0.48920386559999995;0
0.02195;-0.0036839999999999998;0.00096711874537146669;-9.8100000000000005;0;0.48946583160000001;0
0.022;-0.0036839999999999998;0.00097367949561081441;-9.8100000000000005;0;0.48972777839999998;0
0.02205;-0.0036839999999999998;0.00098026941605978903;-9.8100000000000005;0;0.48998972399999996;0
0.0221;-0.0036839999999999998;0.00098688856651321611;-9.8100000000000005;0;0.4902516696;0
0.02215;-0.0036839999999999998;0.00099353700672221053;-9.8100000000000005;0;0.49051363679999999;0
0.0222;-0.0036839999999999998;0.0010002147963941541;-9.8100000000000005;0;0.49077558359999995;0
0.02225;-0.0036839999999999998;0.00100692199519259;-9.8100000000000005;0;0.49103752919999999;0
0.0223;-0.0036839999999999998;0.0010136586627370861;-9.8100000000000005;0;0.49129947480000002;0
0.02235;-0.0036839999999999998;0.001020424858603212;-9.8100000000000005;0;0.49156144200000002;0
0.0224;-0.0036839999999999998;0.0010272206423224115;-9.8100000000000005;0;0.49182338759999994;0
0.02245;-0.0036839999999999998;0.0010340460733818887;-9.8100000000000005;0;0.49208533440000002;0
0.0225;-0.0036839999999999998;0.0010409012112245735;-9.8100000000000005;0;0.49234728;0
0.02255;-0.0036839999999999998;0.0010477861152489603;-9.8100000000000005;0;0.49260924719999999;0
0.0226;-0.0036839999999999998;0.0010547008448090738;-9.8100000000000005;0;0.49287119279999997;0
0.02265;-0.0036839999999999998;0.0010616454592143549;-9.8100000000000005;0;0.49313313839999995;0
0.0227;-0.0036839999999999998;0.0010686200177295797;-9.8100000000000005;0;0.49339508519999997;0
0.02275;-0.0036839999999999998;0.001075624579574734;-9.8100000000000005;0;0.49365705239999996;0
0.0228;-0.0039239999999999995;0.0010826592039249548;-9.8100000000000005;0;0.49391899799999994;0
0.02285;-0.0039239999999999995;0.0010897239499104536;-9.8100000000000005;0;0.49418094359999998;0
0.0229;-0.0039239999999999995;0.0010968188766163631;-9.8100000000000005;0;0.49444291079999997;0
0.02295;-0.0039239999999999995;0.0011039440430827179;-9.8100000000000005;0;0.4947048564;0
0.023;-0.0039239999999999995;0.0011110995083043038;-9.8100000000000005;0;0.49496680319999997;0
0.02305;-0.0039239999999999995;0.0011182853312306027;-9.8100000000000005;0;0.49522874880000001;0
0.0231;-0.0039239999999999995;0.0011255015707657108;-9.8100000000000005;0;0.495490716;0
0.02315;-0.0039239999999999995;0.0011327482857681915;-9.8100000000000005;0;0.49575266159999998;0
0.0232;-0.0039239999999999995;0.0011400255350510402;-9.8100000000000005;0;0.49601460719999996;0
0.02325;-0.0039239999999999995;0.00114733337738156;-9.8100000000000005;0;0.49627655399999998;0
0.0233;-0.0039239999999999995;0.0011546718714813165;-9.8100000000000005;0;0.49653852119999997;0
0.02335;-0.0039239999999999995;0.0011620410760259641;-9.8100000000000005;0;0.49680046680000001;0
0.0234;-0.0039239999999999995;0.001169441049645263;-9.8100000000000005;0;0.49706241239999993;0
0.02345;-0.0039239999999999995;0.0011768718509228666;-9.8100000000000005;0;0.49732435920000001;0
0.0235;-0.0039239999999999995;0.0011843335383963528;-9.8100000000000005;0;0.49758632519999996;0
0.02355;-0.0039239999999999995;0.0011918261705570234;-9.8100000000000005;0;0.49784827199999993;0
0.0236;-0.004176;0.0011993498058499225;-9.8100000000000005;0;0.49811021759999996;0
0.02365;-0.004176;0.0012069045026736249;-9.8100000000000005;0;0.49837218479999995;0
0.0237;-0.004176;0.0012144903193802414;-9.8100000000000005;0;0.49863413039999999;0
0.02375;-0.004176;0.0012221073142753051;-9.8100000000000005;0;0.49889607599999997;0
0.0238;-0.004176;0.0012297555456176554;-9.8100000000000005;0;0.49915802279999999;0
0.02385;-0.004176;0.0012374350716193717;-9.8100000000000005;0;0.49941998999999998;0
0.0239;-0.004176;0.0012451459504456486;-9.8100000000000005;0;0.49968193559999996;0
0.02395;-0.004176;0.0012528882402147623;-9.8100000000000005;0;0.4999438812;0
0.024;-0.004176;0.0012606619989979236;-9.8100000000000005;0;0.50020582800000002;0
0.02405;-0.004176;0.0012684672848192568;-9.8100000000000005;0;0.50046779399999997;0
0.0241;-0.004176;0.0012763041556556026;-9.8100000000000005;0;0.50072974079999999;0
0.02415;-0.004176;0.001284172669436536;-9.8100000000000005;0;0.50099168640000002;0
0.0242;-0.004176;0.001292072884044215;-9.8100000000000005;0;0.50125363199999995;0
0.02425;-0.004176;0.001300004857313316;-9.8100000000000005;0;0.5015155992;0
0.0243;-0.004176;0.0013079686470309306;-9.8100000000000005;0;0.50177754479999992;0
0.02435;-0.004176;0.0013159643109364504;-9.8100000000000005;0;0.50203949160000005;0
0.0244;-0.004176;0.0013239919067215646;-9.8100000000000005;0;0.50230143719999998;0
0.02445;-0.004176;0.0013320514920300577;-9.8100000000000005;0;0.50256340439999991;0
0.0245;-0.004176;0.0013401431244577818;-9.8100000000000005;0;0.50282534999999995;0
0.02455;-0.0044159999999999998;0.0013482668615526043;-9.8100000000000005;0;0.50308729679999997;0
0.0246;-0.0044159999999999998;0.0013564227608142058;-9.8100000000000005;0;0.50334926280000003;0
0.02465;-0.0044159999999999998;0.0013646108796940902;-9.8100000000000005;0;0.50361120959999994;0
0.0247;-0.0044159999999999998;0.0013728312755954702;-9.8100000000000005;0;0.50387315519999998;0
0.02475;-0.0044159999999999998;0.0013810840058731638;-9.8100000000000005;0;0.50413510080000001;0
0.0248;-0.0044159999999999998;0.0013893691278334811;-9.8100000000000005;0;0.50439706799999995;0
0.02485;-0.0044159999999999998;0.0013976866987341981;-9.8100000000000005;0;0.50465901359999998;0
0.0249;-0.0044159999999999998;0.0014060367757844138;-9.8100000000000005;0;0.50492096040000001;0
0.02495;-0.0044159999999999998;0.0014144194161444894;-9.8100000000000005;0;0.50518290600000004;0
0.025;-0.0044159999999999998;0.0014228346769259322;-9.8100000000000005;0;0.50544487319999998;0
0.02505;-0.0044159999999999998;0.0014312826151913552;-9.8100000000000005;0;0.5057068187999999;0
0.0251;-0.0044159999999999998;0.0014397632879543281;-9.8100000000000005;0;0.50596876560000004;0
0.02515;-0.0044159999999999998;0.0014482767521793226;-9.8100000000000005;0;0.50623071119999996;0
0.0252;-0.0044159999999999998;0.0014568230647816253;-9.8100000000000005;0;0.50649267840000001;0
0.02525;-0.0044159999999999998;0.0014654022826272087;-9.8100000000000005;0;0.50675462399999993;0
0.0253;-0.0044159999999999998;0.0014740144625327207;-9.8100000000000005;0;0.50701656959999997;0
0.02535;-0.0044159999999999998;0.0014826596612653041;-9.8100000000000005;0;0.50727851639999999;0
0.0254;-0.0044159999999999998;0.0014913379355425865;-9.8100000000000005;0;0.50754048239999994;0
0.02545;-0.0046560000000000004;0.0015000493420325371;-9.8100000000000005;0;0.50780242919999996;0
0.0255;-0.0046560000000000004;0.0015087939373533935;-9.8100000000000005;0;0.5080643748;0
0.02555;-0.0046560000000000004;0.001517571778073584;-9.8100000000000005;0;0.50832634199999993;0
0.0256;-0.0046560000000000004;0.0015263829207116399;-9.8100000000000005;0;0.50858828759999997;0
0.02565;-0.0046560000000000004;0.0015352274217360802;-9.8100000000000005;0;0.5088502332;0
0.0257;-0.0046560000000000004;0.001544105337565375;-9.8100000000000005;0;0.50911218000000003;0
0.02575;-0.0046560000000000004;0.0015530167245677653;-9.8100000000000005;0;0.50937414719999996;0
0.0258;-0.0046560000000000004;0.0015619616390612802;-9.8100000000000005;0;0.5096360928;0
0.02585;-0.0046560000000000004;0.0015709401373135937;-9.8100000000000005;0;0.50989803840000003;0
0.0259;-0.0046560000000000004;0.0015799522755419128;-9.8100000000000005;0;0.51015998519999994;0
0.02595;-0.0046560000000000004;0.0015889981099129792;-9.8100000000000005;0;0.5104219512;0
0.026;-0.0046560000000000004;0.0015980776965428491;-9.8100000000000005;0;0.51068389800000002;0
0.02605;-0.0046560000000000004;0.0016071910914969251;-9.8100000000000005;0;0.51094584359999995;0
0.0261;-0.0046560000000000004;0.0016163383507897999;-9.8100000000000005;0;0.51120778919999998;0
0.02615;-0.0046560000000000004;0.0016255195303852103;-9.8100000000000005;0;0.51146975639999992;0
0.0262;-0.0046560000000000004;0.0016347346861959068;-9.8100000000000005;0;0.51173170199999995;0
0.02625;-0.0046560000000000004;0.0016439838740835802;-9.8100000000000005;0;0.51199364879999998;0
0.0263;-0.0046560000000000004;0.0016532671498587863;-9.8100000000000005;0;0.51225561599999991;0
0.02635;-0.0046560000000000004;0.0016625845692808713;-9.8100000000000005;0;0.51251756159999995;0
0.0264;-0.004908;0.0016719361880578314;-9.8100000000000005;0;0.51277950719999998;0
0.02645;-0.004908;0.0016813220618462899;-9.8100000000000005;0;0.51304145400000001;0
0.0265;-0.004908;0.0016907422462513295;-9.8100000000000005;0;0.51330341999999995;0
0.02655;-0.004908;0.0017001967968265017;-9.8100000000000005;0;0.51356536679999998;0
0.0266;-0.004908;0.0017096857690736657;-9.8100000000000005;0;0.51382731240000001;0
0.02665;-0.004908;0.0017192092184429208;-9.8100000000000005;0;0.51408925800000005;0
0.0267;-0.004908;0.0017287672003325125;-9.8100000000000005;0;0.51435122519999998;0
0.02675;-0.004908;0.0017383597700888053;-9.8100000000000005;0;0.51461317079999991;0
0.0268;-0.004908;0.0017479869830060812;-9.8100000000000005;0;0.51487511760000004;0
0.02685;-0.004908;0.0017576488943265374;-9.8100000000000005;0;0.51513706319999997;0
0.0269;-0.004908;0.001767345559240211;-9.8100000000000005;0;0.5153990303999999;0
0.02695;-0.004908;0.0017770770328848103;-9.8100000000000005;0;0.51566097599999994;0
0.027;-0.004908;0.0017868433703456948;-9.8100000000000005;0;0.51592292279999996;0
0.02705;-0.004908;0.0017966446266557763;-9.8100000000000005;0;0.5161848684;0
0.0271;-0.004908;0.0018064808567954161;-9.8100000000000005;0;0.51644683559999993;0
0.02715;-0.004908;0.0018163521156923394;-9.8100000000000005;0;0.51670878119999997;0
0.0272;-0.0051480000000000007;0.0018262584582215602;-9.8100000000000005;0;0.5169707268;0
0.02725;-0.0051480000000000007;0.0018361999392053096;-9.8100000000000005;0;0.51723269399999994;0
0.0273;-0.0051480000000000007;0.0018461766134128795;-9.8100000000000005;0;0.51749463959999997;0
0.02735;-0.0051480000000000007;0.0018561885355606459;-9.8100000000000005;0;0.5177565864;0
0.0274;-0.0051480000000000007;0.0018662357603118577;-9.8100000000000005;0;0.51801853200000003;0
0.02745;-0.0051480000000000007;0.0018763183422766609;-9.8100000000000005;0;0.51828049919999997;0
0.0275;-0.0051480000000000007;0.0018864363360119561;-9.8100000000000005;0;0.5185424448;0
0.02755;-0.0051480000000000007;0.0018965897960212842;-9.8100000000000005;0;0.51880439160000003;0
0.0276;-0.0051480000000000007;0.0019067787767548233;-9.8100000000000005;0;0.51906633719999995;0
0.02765;-0.0051480000000000007;0.0019170033326092186;-9.8100000000000005;0;0.5193283044;0
0.0277;-0.0051480000000000007;0.0019272635179275657;-9.8100000000000005;0;0.51959025000000003;0
0.02775;-0.0051480000000000007;0.0019375593869992538;-9.8100000000000005;0;0.51985219559999996;0
0.0278;-0.0051480000000000007;0.0019478909940599349;-9.8100000000000005;0;0.52011414239999998;0
0.02785;-0.0051480000000000007;0.0019582583932914268;-9.8100000000000005;0;0.52037610839999993;0
0.0279;-0.0051480000000000007;0.0019686616388216072;-9.8100000000000005;0;0.52063805519999995;0
0.02795;-0.0051480000000000007;0.0019791007847243325;-9.8100000000000005;0;0.52090000079999998;0
0.028;-0.0053999999999999994;0.0019895758850193616;-9.8100000000000005;0;0.52116196799999992;0
0.02805;-0.0053999999999999994;0.0020000869936722745;-9.8100000000000005;0;0.52142391359999996;0
0.0281;-0.0053999999999999994;0.002010634164594381;-9.8100000000000005;0;0.52168586039999998;0
0.02815;-0.0053999999999999994;0.0020212174516426114;-9.8100000000000005;0;0.52194780600000001;0
0.0282;-0.0053999999999999994;0.002031836908619483;-9.8100000000000005;0;0.52220977319999995;0
0.02825;-0.0053999999999999994;0.0020424925892729468;-9.8100000000000005;0;0.52247171879999998;0
0.0283;-0.0053999999999999994;0.0020531845472963684;-9.8100000000000005;0;0.52273366440000002;0
0.02835;-0.0053999999999999994;0.0020639128363283922;-9.8100000000000005;0;0.52299561119999993;0
0.0284;-0.0053999999999999994;0.0020746775099528764;-9.8100000000000005;0;0.52325757719999999;0
0.02845;-0.0053999999999999994;0.0020854786216988113;-9.8100000000000005;0;0.52351952400000001;0
0.0285;-0.0053999999999999994;0.0020963162250402503;-9.8100000000000005;0;0.52378146960000005;0
0.02855;-0.0053999999999999994;0.002107190373396147;-9.8100000000000005;0;0.52404341519999997;0
0.0286;-0.0053999999999999994;0.0021181011201303612;-9.8100000000000005;0;0.52430538239999991;0
0.02865;-0.0053999999999999994;0.0021290485185515556;-9.8100000000000005;0;0.52456732920000004;0
0.0287;-0.0053999999999999994;0.0021400326219130693;-9.8100000000000005;0;0.52482927479999997;0
0.02875;-0.00564;0.0021510534834128306;-9.8100000000000005;0;0.5250912204;0
0.0288;-0.00564;0.0021621111561933612;-9.8100000000000005;0;0.52535318759999994;0
0.02885;-0.00564;0.0021732056933415718;-9.8100000000000005;0;0.52561513319999997;0
0.0289;-0.00564;0.0021843371478887383;-9.8100000000000005;0;0.52587708;0
0.02895;-0.00564;0.0021955055728104583;-9.8100000000000005;0;0.52613904599999994;0
0.029;-0.00564;0.0022067110210264498;-9.8100000000000005;0;0.52640099279999997;0
0.02905;-0.00564;0.0022179535454005983;-9.8100000000000005;0;0.5266629384;0
0.0291;-0.00564;0.0022292331987407541;-9.8100000000000005;0;0.52692488400000004;0
0.02915;-0.00564;0.0022405500337987511;-9.8100000000000005;0;0.52718685119999997;0
0.0292;-0.00564;0.002251904103270233;-9.8100000000000005;0;0.52744879680000001;0
0.02925;-0.00564;0.0022632954597946427;-9.8100000000000005;0;0.52771074360000003;0
0.0293;-0.00564;0.0022747241559550779;-9.8100000000000005;0;0.52797268919999996;0
0.02935;-0.00564;0.0022861902442782374;-9.8100000000000005;0;0.5282346564;0
0.0294;-0.00564;0.0022976937772343502;-9.8100000000000005;0;0.52849660199999993;0
0.02945;-0.0058920000000000005;0.0023092348072370618;-9.8100000000000005;0;0.52875854879999995;0
0.0295;-0.0058920000000000005;0.0023208133866433498;-9.8100000000000005;0;0.52902049439999999;0
0.02955;-0.0058920000000000005;0.0023324295677534545;-9.8100000000000005;0;0.52928246160000003;0
0.0296;-0.0058920000000000005;0.002344083402810824;-9.8100000000000005;0;0.52954440719999996;0
0.02965;-0.0058920000000000005;0.002355774944001941;-9.8100000000000005;0;0.52980635279999999;0
0.0297;-0.0058920000000000005;0.0023675042434563431;-9.8100000000000005;0;0.5300682995999999;0
0.02975;-0.0058920000000000005;0.002379271353246463;-9.8100000000000005;0;0.53033026559999996;0
0.0298;-0.0058920000000000005;0.0023910763253875769;-9.8100000000000005;0;0.53059221239999999;0
0.02985;-0.0058920000000000005;0.0024029192118377326;-9.8100000000000005;0;0.53085415800000002;0
0.0299;-0.0058920000000000005;0.0024148000644976203;-9.8100000000000005;0;0.53111612519999996;0
0.02995;-0.0058920000000000005;0.0024267189352105384;-9.8100000000000005;0;0.53137807079999999;0
0.03;-0.0058920000000000005;0.0024386758757622739;-9.8100000000000005;0;0.53164001760000001;0
0.03005;-0.0058920000000000005;0.0024506709378810682;-9.8100000000000005;0;0.53190196319999994;0
0.0301;-0.0061319999999999994;0.0024627041732374392;-9.8100000000000005;0;0.53216393039999998;0
0.03015;-0.0061319999999999994;0.002474775633444207;-9.8100000000000005;0;0.53242587600000002;0
0.0302;-0.0061319999999999994;0.0024868853700563322;-9.8100000000000005;0;0.53268782160000006;0
0.03025;-0.0061319999999999994;0.0024990334345708935;-9.8100000000000005;0;0.53294976839999997;0
0.0303;-0.0061319999999999994;0.00251121987842693;-9.8100000000000005;0;0.53321173439999991;0
0.03035;-0.0061319999999999994;0.0025234447530054303;-9.8100000000000005;0;0.53347368120000005;0
0.0304;-0.0061319999999999994;0.0025357081096292096;-9.8100000000000005;0;0.53373562679999997;0
0.03045;-0.0061319999999999994;0.0025480099995628335;-9.8100000000000005;0;0.53399757240000001;0
0.0305;-0.0061319999999999994;0.0025603504740125261;-9.8100000000000005;0;0.53425953959999994;0
0.03055;-0.0061319999999999994;0.0025727295841261461;-9.8100000000000005;0;0.53452148639999997;0
0.0306;-0.0061319999999999994;0.0025851473809929797;-9.8100000000000005;0;0.534783432;0
0.03065;-0.0061319999999999994;0.0025976039156437826;-9.8100000000000005;0;0.53504539919999994;0
0.0307;-0.0061319999999999994;0.0026100992390506489;-9.8100000000000005;0;0.53530734479999997;0
0.03075;-0.0061319999999999994;0.0026226334021269147;-9.8100000000000005;0;0.53556929040000001;0
0.0308;-0.0063839999999999999;0.0026352064557270899;-9.8100000000000005;0;0.53583123719999992;0
0.03085;-0.0063839999999999999;0.0026478184506467744;-9.8100000000000005;0;0.53609320319999998;0
0.0309;-0.0063839999999999999;0.0026604694376225774;-9.8100000000000005;0;0.53635515;0
0.03095;-0.0063839999999999999;0.0026731594673320169;-9.8100000000000005;0;0.53661709560000004;0
0.031;-0.0063839999999999999;0.0026858885903934863;-9.8100000000000005;0;0.53687904119999996;0
0.03105;-0.0063839999999999999;0.0026986568573661085;-9.8100000000000005;0;0.53714100840000001;0
0.0311;-0.0063839999999999999;0.0027114643187496667;-9.8100000000000005;0;0.53740295520000003;0
0.03115;-0.0063839999999999999;0.0027243110249846056;-9.8100000000000005;0;0.53766490079999996;0
0.0312;-0.0063839999999999999;0.002737197026451818;-9.8100000000000005;0;0.53792684639999999;0
0.03125;-0.0063839999999999999;0.002750122373472661;-9.8100000000000005;0;0.53818881359999993;0
0.0313;-0.0063839999999999999;0.0027630871163088081;-9.8100000000000005;0;0.53845075919999996;0
0.03135;-0.0063839999999999999;0.002776091305162248;-9.8100000000000005;0;0.53871270599999999;0
0.0314;-0.0063839999999999999;0.0027891349901750877;-9.8100000000000005;0;0.53897465159999991;0
0.03145;-0.0063839999999999999;0.0028022182214296064;-9.8100000000000005;0;0.53923661879999996;0
0.0315;-0.0066239999999999997;0.0028153410489480503;-9.8100000000000005;0;0.53949856439999999;0
0.03155;-0.0066239999999999997;0.0028285035226926405;-9.8100000000000005;0;0.53976051000000003;0
0.0316;-0.0066239999999999997;0.0028417056925654207;-9.8100000000000005;0;0.54002247719999996;0
0.03165;-0.0066239999999999997;0.0028549476084082275;-9.8100000000000005;0;0.54028442399999999;0
0.0317;-0.0066239999999999997;0.0028682293200026064;-9.8100000000000005;0;0.54054636960000002;0
0.03175;-0.0066239999999999997;0.0028815508770696995;-9.8100000000000005;0;0.54080831519999994;0
0.0318;-0.0066239999999999997;0.0028949123292701467;-9.8100000000000005;0;0.54107028239999999;0
0.03185;-0.0066239999999999997;0.0029083137262041012;-9.8100000000000005;0;0.54133222800000003;0
0.0319;-0.0066239999999999997;0.0029217551174110529;-9.8100000000000005;0;0.54159417479999994;0
0.03195;-0.0066239999999999997;0.0029352365523697601;-9.8100000000000005;0;0.54185612039999997;0
0.032;-0.0066239999999999997;0.0029487580804982015;-9.8100000000000005;0;0.54211808760000002;0
0.03205;-0.0066239999999999997;0.0029623197511534989;-9.8100000000000005;0;0.54238003319999994;0
0.0321;-0.0066239999999999997;0.0029759216136317807;-9.8100000000000005;0;0.54264197879999998;0
0.03215;-0.0066239999999999997;0.0029895637171681549;-9.8100000000000005;0;0.5429039256;0
0.0322;-0.0066239999999999997;0.0030032461109366416;-9.8100000000000005;0;0.54316589280000005;0
0.03225;-0.0068640000000000003;0.0030169688440499945;-9.8100000000000005;0;0.54342783839999997;0
0.0323;-0.0068640000000000003;0.0030307319655597524;-9.8100000000000005;0;0.54368978400000001;0
0.03235;-0.0068640000000000003;0.0030445355244560412;-9.8100000000000005;0;0.54395173080000003;0
0.0324;-0.0068640000000000003;0.003058379569667577;-9.8100000000000005;0;0.54421369679999998;0
0.03245;-0.0068640000000000003;0.0030722641500615364;-9.8100000000000005;0;0.5444756436;0
0.0325;-0.0068640000000000003;0.003086189314443506;-9.8100000000000005;0;0.54473758919999993;0
0.03255;-0.0068640000000000003;0.0031001551115573717;-9.8100000000000005;0;0.54499955639999997;0
0.0326;-0.0068640000000000003;0.0031141615900852687;-9.8100000000000005;0;0.54526150200000001;0
0.03265;-0.0068640000000000003;0.0031282087986474892;-9.8100000000000005;0;0.54552344760000004;0
0.0327;-0.0068640000000000003;0.0031422967858023964;-9.8100000000000005;0;0.54578539439999996;0
0.03275;-0.0068640000000000003;0.0031564256000463299;-9.8100000000000005;0;0.5460473616;0
0.0328;-0.0068640000000000003;0.0031705952898135764;-9.8100000000000005;0;0.54630930720000004;0
0.03285;-0.0068640000000000003;0.0031848059034762198;-9.8100000000000005;0;0.54657125279999996;0
0.0329;-0.0071159999999999999;0.0031990574893441498;-9.8100000000000005;0;0.5468331984;0
0.03295;-0.0071159999999999999;0.0032133500956648756;-9.8100000000000005;0;0.54709516559999993;0
0.033;-0.0071159999999999999;0.0032276837706235501;-9.8100000000000005;0;0.54735711239999996;0
0.03305;-0.0071159999999999999;0.0032420585623427873;-9.8100000000000005;0;0.54761905799999999;0
0.0331;-0.0071159999999999999;0.0032564745188826691;-9.8100000000000005;0;0.54788100359999992;0
0.03315;-0.0071159999999999999;0.0032709316882406458;-9.8100000000000005;0;0.54814297079999996;0
0.0332;-0.0071159999999999999;0.0032854301183514235;-9.8100000000000005;0;0.5484049164;0
0.03325;-0.0071159999999999999;0.0032999698570869034;-9.8100000000000005;0;0.54866686319999991;0
0.0333;-0.0071159999999999999;0.0033145509522560972;-9.8100000000000005;0;0.54892882919999997;0
0.03335;-0.0071159999999999999;0.003329173451605071;-9.8100000000000005;0;0.54919077599999999;0
0.0334;-0.0071159999999999999;0.0033438374028168438;-9.8100000000000005;0;0.54945272160000003;0
0.03345;-0.0071159999999999999;0.0033585428535113102;-9.8100000000000005;0;0.54971466719999995;0
0.0335;-0.0071159999999999999;0.0033732898512451445;-9.8100000000000005;0;0.5499766344;0
0.03355;-0.0071159999999999999;0.0033880784435117869;-9.8100000000000005;0;0.55023858120000002;0
0.0336;-0.0071159999999999999;0.0034029086777412651;-9.8100000000000005;0;0.55050052679999995;0
0.03365;-0.0073559999999999997;0.0034177806013002176;-9.8100000000000005;0;0.55076247239999998;0
0.0337;-0.0073559999999999997;0.0034326942614917432;-9.8100000000000005;0;0.55102443960000003;0
0.03375;-0.0073559999999999997;0.0034476497055553239;-9.8100000000000005;0;0.55128638519999995;0
0.0338;-0.0073559999999999997;0.0034626469806667971;-9.8100000000000005;0;0.55154833199999997;0
0.03385;-0.0073559999999999997;0.0034776861339382448;-9.8100000000000005;0;0.55181027760000001;0
0.0339;-0.0073559999999999997;0.0034927672124179109;-9.8100000000000005;0;0.55207224479999994;0
0.03395;-0.0073559999999999997;0.0035078902630901062;-9.8100000000000005;0;0.55233419039999998;0
0.034;-0.0073559999999999997;0.0035230553328751829;-9.8100000000000005;0;0.55259613600000002;0
0.03405;-0.0073559999999999997;0.0035382624686294212;-9.8100000000000005;0;0.55285808279999993;0
0.0341;-0.0073559999999999997;0.0035535117171449338;-9.8100000000000005;0;0.55312004999999997;0
0.03415;-0.0073559999999999997;0.0035688031251496373;-9.8100000000000005;0;0.55338199560000001;0
0.0342;-0.0073559999999999997;0.0035841367393071059;-9.8100000000000005;0;0.55364394119999993;0
0.03425;-0.0073559999999999997;0.00359951260621658;-9.8100000000000005;0;0.55390590839999998;0
0.0343;-0.0073559999999999997;0.003614930772412817;-9.8100000000000005;0;0.55416785400000002;0
0.03435;-0.0076080000000000002;0.0036303912843660179;-9.8100000000000005;0;0.55442980079999993;0
0.0344;-0.0076080000000000002;0.0036458941884817942;-9.8100000000000005;0;0.55469174639999996;0
0.03445;-0.0076080000000000002;0.0036614395311010775;-9.8100000000000005;0;0.55495371360000001;0
0.0345;-0.0076080000000000002;0.0036770273584999704;-9.8100000000000005;0;0.55521565920000004;0
0.03455;-0.0076080000000000002;0.0036926577168897899;-9.8100000000000005;0;0.55547760479999997;0
0.0346;-0.0076080000000000002;0.0037083306524168863;-9.8100000000000005;0;0.55573955159999999;0
0.03465;-0.0076080000000000002;0.0037240462111626338;-9.8100000000000005;0;0.55600151880000004;0
0.0347;-0.0076080000000000002;0.0037398044391432849;-9.8100000000000005;0;0.55626346439999996;0
0.03475;-0.0076080000000000002;0.0037556053823099601;-9.8100000000000005;0;0.55652541;0
0.0348;-0.0076080000000000002;0.003771449086548554;-9.8100000000000005;0;0.55678735680000002;0
0.03485;-0.0076080000000000002;0.0037873355976796247;-9.8100000000000005;0;0.55704932279999997;0
0.0349;-0.0076080000000000002;0.0038032649614583307;-9.8100000000000005;0;0.55731126959999999;0
0.03495;-0.0076080000000000002;0.0038192372235743904;-9.8100000000000005;0;0.55757321519999992;0
0.035;-0.0076080000000000002;0.0038352524296519515;-9.8100000000000005;0;0.55783518239999996;0
0.03505;-0.0078479999999999991;0.0038513106252495485;-9.8100000000000005;0;0.558097128;0
0.0351;-0.0078479999999999991;0.0038674118558600294;-9.8100000000000005;0;0.55835907360000003;0
0.03515;-0.0078479999999999991;0.0038835561669104193;-9.8100000000000005;0;0.55862102039999995;0
0.0352;-0.0078479999999999991;0.0038997436037619183;-9.8100000000000005;0;0.55888298759999999;0
0.03525;-0.0078479999999999991;0.0039159742117098233;-9.8100000000000005;0;0.55914493320000003;0
0.0353;-0.0078479999999999991;0.0039322480359833814;-9.8100000000000005;0;0.55940687879999995;0
0.03535;-0.0078479999999999991;0.0039485651217457483;-9.8100000000000005;0;0.55966882559999998;0
0.0354;-0.0078479999999999991;0.0039649255140939794;-9.8100000000000005;0;0.55993079160000003;0
0.03545;-0.0078479999999999991;0.0039813292580588161;-9.8100000000000005;0;0.56019273839999995;0
0.0355;-0.0078479999999999991;0.0039977763986047288;-9.8100000000000005;0;0.56045468399999998;0
0.03555;-0.0078479999999999991;0.0040142669806297743;-9.8100000000000005;0;0.56071662959999991;0
0.0356;-0.0078479999999999991;0.0040308010489655864;-9.8100000000000005;0;0.56097859679999995;0
0.03565;-0.0080999999999999996;0.0040473786483772112;-9.8100000000000005;0;0.56124054239999999;0
0.0357;-0.0080999999999999996;0.0040639998235630853;-9.8100000000000005;0;0.56150248920000001;0
0.03575;-0.0080999999999999996;0.0040806646191549594;-9.8100000000000005;0;0.56176443479999993;0
0.0358;-0.0080999999999999996;0.0040973730797178066;-9.8100000000000005;0;0.56202640199999998;0
0.03585;-0.0080999999999999996;0.0041141252497497198;-9.8100000000000005;0;0.56228834760000002;0
0.0359;-0.0080999999999999996;0.0041309211736819552;-9.8100000000000005;0;0.56255029439999993;0
0.03595;-0.0080999999999999996;0.0041477608958786685;-9.8100000000000005;0;0.56281226039999999;0
0.036;-0.0080999999999999996;0.0041646444606370028;-9.8100000000000005;0;0.56307420720000001;0
0.03605;-0.0080999999999999996;0.0041815719121869226;-9.8100000000000005;0;0.56333615279999993;0
0.0361;-0.0080999999999999996;0.004198543294691195;-9.8100000000000005;0;0.56359809839999997;0
0.03615;-0.0080999999999999996;0.0042155586522452382;-9.8100000000000005;0;0.56386006560000002;0
0.0362;-0.0080999999999999996;0.0042326180288771555;-9.8100000000000005;0;0.56412201120000005;0
0.03625;-0.0080999999999999996;0.0042497214685475147;-9.8100000000000005;0;0.56438395799999996;0
0.0363;-0.0083399999999999985;0.0042668690151494385;-9.8100000000000005;0;0.5646459036;0
0.03635;-0.0083399999999999985;0.0042840607125083988;-9.8100000000000005;0;0.56490787080000004;0
0.0364;-0.0083399999999999985;0.004301296604382175;-9.8100000000000005;0;0.56516981639999997;0
0.03645;-0.0083399999999999985;0.0043185767344608612;-9.8100000000000005;0;0.56543176319999999;0
0.0365;-0.0083399999999999985;0.0043359011463666346;-9.8100000000000005;0;0.56569370880000003;0
0.03655;-0.0083399999999999985;0.0043532698836538158;-9.8100000000000005;0;0.56595567599999996;0
0.0366;-0.0083399999999999985;0.004370682989808773;-9.8100000000000005;0;0.5662176216;0
0.03665;-0.0083399999999999985;0.0043881405082497518;-9.8100000000000005;0;0.56647956719999992;0
0.0367;-0.0083399999999999985;0.0044056424823269149;-9.8100000000000005;0;0.56674151399999995;0
0.03675;-0.0083399999999999985;0.0044231889553222117;-9.8100000000000005;0;0.56700348;0
0.0368;-0.0083399999999999985;0.004440779970449304;-9.8100000000000005;0;0.56726542679999992;0
0.03685;-0.0085919999999999989;0.0044584155708535418;-9.8100000000000005;0;0.56752737239999995;0
0.0369;-0.0085919999999999989;0.004476095799611785;-9.8100000000000005;0;0.5677893396;0
0.03695;-0.0085919999999999989;0.0044938206997324334;-9.8100000000000005;0;0.56805128520000003;0
0.037;-0.0085919999999999989;0.0045115903141553027;-9.8100000000000005;0;0.56831323079999996;0
0.03705;-0.0085919999999999989;0.004529404685751544;-9.8100000000000005;0;0.56857517759999998;0
0.0371;-0.0085919999999999989;0.0045472638573236116;-9.8100000000000005;0;0.56883714480000003;0
0.03715;-0.0085919999999999989;0.0045651678716051485;-9.8100000000000005;0;0.56909909039999995;0
0.0372;-0.0085919999999999989;0.0045831167712609144;-9.8100000000000005;0;0.56936103599999999;0
0.03725;-0.0085919999999999989;0.0046011105988867295;-9.8100000000000005;0;0.56962298280000001;0
0.0373;-0.0085919999999999989;0.0046191493970093997;-9.8100000000000005;0;0.56988494879999996;0
0.03735;-0.0085919999999999989;0.0046372332080866236;-9.8100000000000005;0;0.57014689559999998;0
0.0374;-0.0085919999999999989;0.0046553620745069576;-9.8100000000000005;0;0.57040884119999991;0
0.03745;-0.0088319999999999996;0.004673536038589686;-9.8100000000000005;0;0.57067078679999994;0
0.0375;-0.0088319999999999996;0.0046917551425848022;-9.8100000000000005;0;0.57093275399999999;0
0.03755;-0.0088319999999999996;0.0047100194286728804;-9.8100000000000005;0;0.57119469960000002;0
0.0376;-0.0088319999999999996;0.0047283289389650736;-9.8100000000000005;0;0.57145664639999993;0
0.03765;-0.0088319999999999996;0.0047466837155029709;-9.8100000000000005;0;0.57171861359999998;0
0.0377;-0.0088319999999999996;0.0047650838002585537;-9.8100000000000005;0;0.57198055920000002;0
0.03775;-0.0088319999999999996;0.0047835292351341516;-9.8100000000000005;0;0.57224250479999994;0
0.0378;-0.0088319999999999996;0.0048020200619622831;-9.8100000000000005;0;0.57250445159999996;0
0.03785;-0.0088319999999999996;0.0048205563225056838;-9.8100000000000005;0;0.57276641760000002;0
0.0379;-0.0088319999999999996;0.0048391380584571729;-9.8100000000000005;0;0.57302836439999993;0
0.03795;-0.0088319999999999996;0.0048577653114396007;-9.8100000000000005;0;0.57329030999999997;0
0.038;-0.0090840000000000001;0.0048764381230057587;-9.8100000000000005;0;0.5735522556;0
0.03805;-0.0090840000000000001;0.00489515653463834;-9.8100000000000005;0;0.57381422280000005;0
0.0381;-0.0090840000000000001;0.004913920587749831;-9.8100000000000005;0;0.57407616839999998;0
0.03815;-0.0090840000000000001;0.0049327303236824382;-9.8100000000000005;0;0.5743381152;0
0.0382;-0.0090840000000000001;0.0049515857837080374;-9.8100000000000005;0;0.57460006079999992;0
0.03825;-0.0090840000000000001;0.0049704870090281341;-9.8100000000000005;0;0.57486202799999997;0
0.0383;-0.0090840000000000001;0.0049894340407737187;-9.8100000000000005;0;0.5751239736;0
0.03835;-0.0090840000000000001;0.0050084269200051908;-9.8100000000000005;0;0.57538592040000003;0
0.0384;-0.0090840000000000001;0.0050274656877123854;-9.8100000000000005;0;0.57564786599999995;0
0.03845;-0.0090840000000000001;0.0050465503848144055;-9.8100000000000005;0;0.5759098332;0
0.0385;-0.0090840000000000001;0.0050656810521596003;-9.8100000000000005;0;0.57617177879999992;0
0.03855;-0.0090840000000000001;0.0050848577305254473;-9.8100000000000005;0;0.57643372439999996;0
0.0386;-0.009323999999999999;0.0051040804606185463;-9.8100000000000005;0;0.5766956916;0
0.03865;-0.009323999999999999;0.0051233492830744538;-9.8100000000000005;0;0.57695763720000004;0
0.0387;-0.009323999999999999;0.0051426642384577535;-9.8100000000000005;0;0.57721958399999995;0
0.03875;-0.009323999999999999;0.0051620253672617997;-9.8100000000000005;0;0.57748152959999999;0
0.0388;-0.009323999999999999;0.0051814327099088068;-9.8100000000000005;0;0.57774349680000003;0
0.03885;-0.009323999999999999;0.0052008863067497186;-9.8100000000000005;0;0.57800544239999996;0
0.0389;-0.009323999999999999;0.0052203861980640951;-9.8100000000000005;0;0.57826738919999998;0
0.03895;-0.009323999999999999;0.0052399324240600858;-9.8100000000000005;0;0.57852933480000002;0
0.039;-0.009323999999999999;0.0052595250248744091;-9.8100000000000005;0;0.57879130199999995;0
0.03905;-0.009323999999999999;0.005279164040572131;-9.8100000000000005;0;0.57905324759999999;0
0.0391;-0.009323999999999999;0.0052988495111467634;-9.8100000000000005;0;0.57931519319999991;0
0.03915;-0.0095639999999999996;0.005318581476520064;-9.8100000000000005;0;0.57957714000000005;0
0.0392;-0.0095639999999999996;0.005338359976542059;-9.8100000000000005;0;0.57983910599999999;0
0.03925;-0.0095639999999999996;0.0053581850509909273;-9.8100000000000005;0;0.58010105279999991;0
0.0393;-0.0095639999999999996;0.0053780567395728795;-9.8100000000000005;0;0.58036299839999994;0
0.03935;-0.0095639999999999996;0.0053979750819222027;-9.8100000000000005;0;0.58062494399999998;0
0.0394;-0.0095639999999999996;0.0054179401176011038;-9.8100000000000005;0;0.58088691120000002;0
0.03945;-0.0095639999999999996;0.005437951886099671;-9.8100000000000005;0;0.58114885799999993;0
0.0395;-0.0095639999999999996;0.0054580104268357708;-9.8100000000000005;0;0.58141080359999997;0
0.03955;-0.0095639999999999996;0.0054781157791550066;-9.8100000000000005;0;0.58167277080000002;0
0.0396;-0.0095639999999999996;0.0054982679823306979;-9.8100000000000005;0;0.58193471639999994;0
0.03965;-0.0095639999999999996;0.0055184670755636638;-9.8100000000000005;0;0.58219666199999998;0
0.0397;-0.0095639999999999996;0.0055387130979823217;-9.8100000000000005;0;0.5824586088;0
0.03975;-0.0098160000000000001;0.0055590060886424779;-9.8100000000000005;0;0.58272057479999995;0
0.0398;-0.0098160000000000001;0.0055793460865274031;-9.8100000000000005;0;0.58298252159999997;0
0.03985;-0.0098160000000000001;0.0055997331305475753;-9.8100000000000005;0;0.58324446720000001;0
0.0399;-0.0098160000000000001;0.0056201672595407775;-9.8100000000000005;0;0.58350641279999993;0
0.03995;-0.0098160000000000001;0.0056406485122719808;-9.8100000000000005;0;0.58376837999999998;0
0.04;-0.0098160000000000001;0.0056611769274331957;-9.8100000000000005;0;0.5840303268;0
0.04005;-0.0098160000000000001;0.0056817525436434852;-9.8100000000000005;0;0.58429227239999992;0
0.0401;-0.0098160000000000001;0.0057023753994489123;-9.8100000000000005;0;0.58455421799999996;0
0.04015;-0.0098160000000000001;0.0057230455333223745;-9.8100000000000005;0;0.5848161852;0
0.0402;-0.0098160000000000001;0.0057437629836636275;-9.8100000000000005;0;0.58507813079999993;0
0.04025;-0.010056000000000001;0.0057645277887991989;-9.8100000000000005;0;0.58534007759999995;0
0.0403;-0.010056000000000001;0.0057853399869822195;-9.8100000000000005;0;0.58560204360000001;0
0.04035;-0.010056000000000001;0.0058061996163925374;-9.8100000000000005;0;0.58586399039999992;0
0.0404;-0.010056000000000001;0.005827106715136459;-9.8100000000000005;0;0.58612593599999996;0
0.04045;-0.010056000000000001;0.0058480613212468276;-9.8100000000000005;0;0.58638788159999999;0
0.0405;-0.010056000000000001;0.0058690634726828728;-9.8100000000000005;0;0.58664984880000004;0
0.04055;-0.010056000000000001;0.0058901132073301407;-9.8100000000000005;0;0.58691179559999995;0
0.0406;-0.010056000000000001;0.0059112105630004606;-9.8100000000000005;0;0.58717374119999999;0
0.04065;-0.010056000000000001;0.005932355577431889;-9.8100000000000005;0;0.58743568680000002;0
0.0407;-0.010056000000000001;0.0059535482882885626;-9.8100000000000005;0;0.58769765399999996;0
0.04075;-0.010056000000000001;0.0059747887331607448;-9.8100000000000005;0;0.58795959959999999;0
0.0408;-0.010056000000000001;0.0059960769495646287;-9.8100000000000005;0;0.58822154640000002;0
0.04085;-0.010056000000000001;0.0060174129749423723;-9.8100000000000005;0;0.58848349200000005;0
0.0409;-0.010307999999999999;0.0060387968466619887;-9.8100000000000005;0;0.58874545919999999;0
0.04095;-0.010307999999999999;0.0060602286020172763;-9.8100000000000005;0;0.58900740479999991;0
0.041;-0.010307999999999999;0.0060817082782277532;-9.8100000000000005;0;0.58926935039999995;0
0.04105;-0.010307999999999999;0.0061032359124385659;-9.8100000000000005;0;0.58953129719999997;0
0.0411;-0.010307999999999999;0.0061248115417204827;-9.8100000000000005;0;0.58979326320000003;0
0.04115;-0.010307999999999999;0.0061464352030697672;-9.8100000000000005;0;0.59005520999999994;0
0.0412;-0.010307999999999999;0.0061681069334081663;-9.8100000000000005;0;0.59031715559999998;0
0.04125;-0.010307999999999999;0.006189826769582768;-9.8100000000000005;0;0.59057912280000002;0
0.0413;-0.010307999999999999;0.0062115947483659647;-9.8100000000000005;0;0.59084106839999995;0
0.04135;-0.010307999999999999;0.0062334109064554532;-9.8100000000000005;0;0.59110301519999997;0
0.0414;-0.010307999999999999;0.0062552752804740461;-9.8100000000000005;0;0.59136496080000001;0
0.04145;-0.010547999999999998;0.0062771879069696999;-9.8100000000000005;0;0.59162692799999994;0
0.0415;-0.010547999999999998;0.0062991488224153902;-9.8100000000000005;0;0.59188887359999998;0
0.04155;-0.010547999999999998;0.0063211580632091249;-9.8100000000000005;0;0.5921508191999999;0
0.0416;-0.010547999999999998;0.0063432156656737558;-9.8100000000000005;0;0.59241276600000004;0
0.04165;-0.010547999999999998;0.0063653216660569901;-9.8100000000000005;0;0.59267473199999998;0
0.0417;-0.010547999999999998;0.006387476100531345;-9.8100000000000005;0;0.59293667880000001;0
0.04175;-0.010547999999999998;0.0064096790051939795;-9.8100000000000005;0;0.59319862439999993;0
0.0418;-0.010547999999999998;0.0064319304160667876;-9.8100000000000005;0;0.59346056999999997;0
0.04185;-0.010547999999999998;0.0064542303690961322;-9.8100000000000005;0;0.59372253720000001;0
0.0419;-0.010547999999999998;0.0064765789001529558;-9.8100000000000005;0;0.59398448399999992;0
0.04195;-0.010547999999999998;0.0064989760450325949;-9.8100000000000005;0;0.59424642959999996;0
0.042;-0.010547999999999998;0.0065214218394548176;-9.8100000000000005;0;0.59450839680000001;0
0.04205;-0.010799999999999999;0.0065439163190636239;-9.8100000000000005;0;0.59477034239999993;0
0.0421;-0.010799999999999999;0.0065664595194273182;-9.8100000000000005;0;0.59503228799999996;0
0.04215;-0.010799999999999999;0.0065890514760383462;-9.8100000000000005;0;0.59529423479999999;0
0.0422;-0.010799999999999999;0.0066116922243132561;-9.8100000000000005;0;0.59555620080000005;0
0.04225;-0.010799999999999999;0.006634381799592649;-9.8100000000000005;0;0.59581814759999996;0
0.0423;-0.010799999999999999;0.0066571202371411156;-9.8100000000000005;0;0.59608009319999999;0
0.04235;-0.010799999999999999;0.0066799075721471132;-9.8100000000000005;0;0.59634203880000003;0
0.0424;-0.010799999999999999;0.0067027438397229896;-9.8100000000000005;0;0.59660400599999996;0
0.04245;-0.010799999999999999;0.0067256290749048431;-9.8100000000000005;0;0.59686595279999999;0
0.0425;-0.010799999999999999;0.0067485633126524993;-9.8100000000000005;0;0.59712789840000002;0
0.04255;-0.010799999999999999;0.0067715465878493966;-9.8100000000000005;0;0.59738984399999995;0
0.0426;-0.011039999999999999;0.0067945789353025948;-9.8100000000000005;0;0.59765181119999999;0
0.04265;-0.011039999999999999;0.0068176603897426302;-9.8100000000000005;0;0.59791375679999992;0
0.0427;-0.011039999999999999;0.0068407909858235038;-9.8100000000000005;0;0.59817570360000005;0
0.04275;-0.011039999999999999;0.0068639707581226346;-9.8100000000000005;0;0.59843764919999998;0
0.0428;-0.011039999999999999;0.0068871997411406897;-9.8100000000000005;0;0.59869961639999991;0
0.04285;-0.011039999999999999;0.0069104779693016415;-9.8100000000000005;0;0.59896156199999995;0
0.0429;-0.011039999999999999;0.0069338054769526409;-9.8100000000000005;0;0.59922350759999998;0
0.04295;-0.011039999999999999;0.00695718229836395;-9.8100000000000005;0;0.59948547480000003;0
0.043;-0.011039999999999999;0.0069806084677288861;-9.8100000000000005;0;0.59974742159999994;0
0.04305;-0.011039999999999999;0.0070040840191637633;-9.8100000000000005;0;0.60000936720000009;0
0.0431;-0.011039999999999999;0.0070276089867078615;-9.8100000000000005;0;0.6002713127999999;0
0.04315;-0.011039999999999999;0.0070511834043232276;-9.8100000000000005;0;0.60053327999999995;0
0.0432;-0.011292;0.007074807305894824;-9.8100000000000005;0;0.60079522559999998;0
0.04325;-0.011292;0.0070984807252302499;-9.8100000000000005;0;0.60105717240000001;0
0.0433;-0.011292;0.0071222036960598544;-9.8100000000000005;0;0.60131911800000004;0
0.04335;-0.011292;0.0071459762520365115;-9.8100000000000005;0;0.60158108519999998;0
0.0434;-0.011292;0.0071697984267356917;-9.8100000000000005;0;0.6018430307999999;0
0.04345;-0.011292;0.0071936702536553286;-9.8100000000000005;0;0.60210497639999994;0
0.0435;-0.011292;0.0072175917662157382;-9.8100000000000005;0;0.60236692319999996;0
0.04355;-0.011292;0.0072415629977596613;-9.8100000000000005;0;0.60262889040000001;0
0.0436;-0.011292;0.0072655839815520184;-9.8100000000000005;0;0.60289083600000004;0
0.04365;-0.011292;0.0072896547507800323;-9.8100000000000005;0;0.60315278160000008;0
0.0437;-0.011292;0.0073137753385530422;-9.8100000000000005;0;0.60341472839999999;0
0.04375;-0.011532000000000001;0.0073379457779024927;-9.8100000000000005;0;0.60367669439999994;0
0.0438;-0.011532000000000001;0.0073621661017818467;-9.8100000000000005;0;0.60393864119999996;0
0.04385;-0.011532000000000001;0.0073864363430665618;-9.8100000000000005;0;0.60420058679999999;0
0.0439;-0.011532000000000001;0.0074107565345539394;-9.8100000000000005;0;0.60446255400000004;0
0.04395;-0.011532000000000001;0.0074351267089631749;-9.8100000000000005;0;0.60472449959999997;0
0.044;-0.011532000000000001;0.0074595468989352249;-9.8100000000000005;0;0.60498644519999989;0
0.04405;-0.011532000000000001;0.0074840171370327436;-9.8100000000000005;0;0.60524839199999991;0
0.0441;-0.011532000000000001;0.0075085374557400429;-9.8100000000000005;0;0.60551035919999996;0
0.04415;-0.011532000000000001;0.0075331078874629875;-9.8100000000000005;0;0.60577230479999999;0
0.0442;-0.011532000000000001;0.0075577284645290321;-9.8100000000000005;0;0.60603425040000003;0
0.04425;-0.011532000000000001;0.0075823992191870401;-9.8100000000000005;0;0.60629619600000006;0
0.0443;-0.011532000000000001;0.007607120183607298;-9.8100000000000005;0;0.6065581632;0
0.04435;-0.011771999999999999;0.0076318913898813694;-9.8100000000000005;0;0.60682010999999991;0
0.0444;-0.011771999999999999;0.0076567128700221624;-9.8100000000000005;0;0.60708205559999995;0
0.04445;-0.011771999999999999;0.0076815846559637789;-9.8100000000000005;0;0.60734400119999998;0
0.0445;-0.011771999999999999;0.007706506779561406;-9.8100000000000005;0;0.60760596840000003;0
0.04455;-0.011771999999999999;0.0077314792725913717;-9.8100000000000005;0;0.60786791400000006;0
0.0446;-0.011771999999999999;0.0077565021667510507;-9.8100000000000005;0;0.60812986079999998;0
0.04465;-0.011771999999999999;0.007781575493658671;-9.8100000000000005;0;0.60839182680000004;0
0.0447;-0.011771999999999999;0.0078066992848534779;-9.8100000000000005;0;0.60865377359999995;0
0.04475;-0.011771999999999999;0.0078318735717954717;-9.8100000000000005;0;0.60891571919999998;0
0.0448;-0.011771999999999999;0.0078570983858654731;-9.8100000000000005;0;0.60917766480000002;0
0.04485;-0.012;0.007882373758364954;-9.8100000000000005;0;0.60943963199999995;0
0.0449;-0.012;0.007907699720516104;-9.8100000000000005;0;0.60970157880000009;0
0.04495;-0.012;0.0079330763034616489;-9.8100000000000005;0;0.6099635243999999;0
0.045;-0.012;0.0079585035382648828;-9.8100000000000005;0;0.61022546999999994;0
0.04505;-0.012;0.0079839814559095057;-9.8100000000000005;0;0.61048743719999998;0
0.0451;-0.012;0.008009510087299691;-9.8100000000000005;0;0.61074938280000002;0
0.04515;-0.012;0.0080350894632598927;-9.8100000000000005;0;0.61101132960000004;0
0.0452;-0.012;0.0080607196145348718;-9.8100000000000005;0;0.61127327519999997;0
0.04525;-0.012;0.0080864005717896145;-9.8100000000000005;0;0.6115352423999999;0
0.0453;-0.012;0.0081121323656092453;-9.8100000000000005;0;0.61179718799999994;0
0.04535;-0.012;0.0081379150264989895;-9.8100000000000005;0;0.61205913359999997;0
0.0454;-0.012240000000000001;0.0081637485848841101;-9.8100000000000005;0;0.6123210804;0
0.04545;-0.012240000000000001;0.0081896330711098593;-9.8100000000000005;0;0.61258304760000004;0
0.0455;-0.012240000000000001;0.0082155685154413922;-9.8100000000000005;0;0.61284499320000008;0
0.04555;-0.012240000000000001;0.0082415549480637108;-9.8100000000000005;0;0.61310693879999989;0
0.0456;-0.012240000000000001;0.0082675923990816035;-9.8100000000000005;0;0.61336890599999994;0
0.04565;-0.012240000000000001;0.0082936808985196037;-9.8100000000000005;0;0.61363085159999997;0
0.0457;-0.012240000000000001;0.0083198204763219145;-9.8100000000000005;0;0.61389279839999999;0
0.04575;-0.012240000000000001;0.0083460111623523282;-9.8100000000000005;0;0.61415474400000003;0
0.0458;-0.012240000000000001;0.008372252986394246;-9.8100000000000005;0;0.61441671119999997;0
0.04585;-0.012240000000000001;0.0083985459781505054;-9.8100000000000005;0;0.61467865679999989;0
0.0459;-0.01248;0.0084248901672433606;-9.8100000000000005;0;0.61494060239999992;0
0.04595;-0.01248;0.0084512855832145056;-9.8100000000000005;0;0.61520254919999995;0
0.046;-0.01248;0.0084777322555248807;-9.8100000000000005;0;0.61546451639999999;0
0.04605;-0.01248;0.0085042302135547032;-9.8100000000000005;0;0.61572646200000003;0
0.0461;-0.01248;0.0085307794866033744;-9.8100000000000005;0;0.61598840760000007;0
0.04615;-0.01248;0.0085573801038894403;-9.8100000000000005;0;0.61625035439999998;0
0.0462;-0.01248;0.0085840320945504908;-9.8100000000000005;0;0.61651232039999992;0
0.04625;-0.01248;0.0086107354876431529;-9.8100000000000005;0;0.61677426719999995;0
0.0463;-0.01248;0.0086374903121430088;-9.8100000000000005;0;0.61703621279999998;0
0.04635;-0.01248;0.0086642965969445356;-9.8100000000000005;0;0.61729815840000002;0
0.0464;-0.01248;0.0086911543708609717;-9.8100000000000005;0;0.61756012560000006;0
0.04645;-0.01272;0.0087180636626244552;-9.8100000000000005;0;0.61782207119999988;0
0.0465;-0.01272;0.0087450245008857397;-9.8100000000000005;0;0.61808401800000001;0
0.04655;-0.01272;0.0087720369142142655;-9.8100000000000005;0;0.61834598519999995;0
0.0466;-0.01272;0.0087991009310981125;-9.8100000000000005;0;0.61860793079999998;0
0.04665;-0.01272;0.0088262165799438096;-9.8100000000000005;0;0.61886987640000002;0
0.0467;-0.01272;0.0088533838890764594;-9.8100000000000005;0;0.61913182319999993;0
0.04675;-0.01272;0.0088806028867395147;-9.8100000000000005;0;0.61939378919999999;0
0.0468;-0.01272;0.0089078736010948633;-9.8100000000000005;0;0.6196557359999999;0
0.04685;-0.01272;0.0089351960602226232;-9.8100000000000005;0;0.61991768159999994;0
0.0469;-0.012960000000000001;0.008962570292121207;-9.8100000000000005;0;0.62017962719999997;0
0.04695;-0.012960000000000001;0.0089899963247071692;-9.8100000000000005;0;0.62044159440000002;0
0.047;-0.012960000000000001;0.0090174741858152808;-9.8100000000000005;0;0.62070354000000005;0
0.04705;-0.012960000000000001;0.009045003903198276;-9.8100000000000005;0;0.62096548679999997;0
0.0471;-0.012960000000000001;0.0090725855045269612;-9.8100000000000005;0;0.6212274324;0
0.04715;-0.012960000000000001;0.0091002190173901255;-9.8100000000000005;0;0.62148939959999994;0
0.0472;-0.012960000000000001;0.0091279044692943803;-9.8100000000000005;0;0.62175134519999997;0
0.04725;-0.012960000000000001;0.0091556418876642537;-9.8100000000000005;0;0.622013292;0
0.0473;-0.012960000000000001;0.0091834312998420181;-9.8100000000000005;0;0.62227525799999994;0
0.04735;-0.012960000000000001;0.0092112727330876561;-9.8100000000000005;0;0.62253720480000008;0
0.0474;-0.012960000000000001;0.0092391662145788304;-9.8100000000000005;0;0.62279915039999989;0
0.04745;-0.013199999999999998;0.0092671117714108169;-9.8100000000000005;0;0.62306109599999993;0
0.0475;-0.013199999999999998;0.0092951094305964831;-9.8100000000000005;0;0.62332306319999997;0
0.04755;-0.013199999999999998;0.0093231592190661204;-9.8100000000000005;0;0.62358500880000001;0
0.0476;-0.013199999999999998;0.0093512611636675028;-9.8100000000000005;0;0.62384695560000003;0
0.04765;-0.013199999999999998;0.0093794152911657568;-9.8100000000000005;0;0.62410890119999995;0
0.0477;-0.013199999999999998;0.0094076216282433789;-9.8100000000000005;0;0.62437086839999989;0
0.04775;-0.013199999999999998;0.0094358802015000794;-9.8100000000000005;0;0.62463281399999993;0
0.0478;-0.013199999999999998;0.0094641910374528466;-9.8100000000000005;0;0.62489476079999995;0
0.04785;-0.013199999999999998;0.009492554162535723;-9.8100000000000005;0;0.62515670639999998;0
0.0479;-0.013439999999999999;0.0095209696030999387;-9.8100000000000005;0;0.62541867360000003;0
0.04795;-0.013439999999999999;0.0095494373854137383;-9.8100000000000005;0;0.62568061920000007;0
0.048;-0.013439999999999999;0.0095779575356623216;-9.8100000000000005;0;0.62594256479999999;0
0.04805;-0.013439999999999999;0.0096065300799478507;-9.8100000000000005;0;0.62620451160000001;0
0.0481;-0.013439999999999999;0.0096351550442893442;-9.8100000000000005;0;0.62646647759999996;0
0.04815;-0.013439999999999999;0.009663832454622644;-9.8100000000000005;0;0.62672842439999998;0
0.0482;-0.013439999999999999;0.0096925623368003255;-9.8100000000000005;0;0.62699037000000002;0
0.04825;-0.013439999999999999;0.009721344716591732;-9.8100000000000005;0;0.62725233720000007;0
0.0483;-0.013439999999999999;0.0097501796196827559;-9.8100000000000005;0;0.62751428279999988;0
0.04835;-0.013439999999999999;0.009779067071675987;-9.8100000000000005;0;0.62777622839999991;0
0.0484;-0.013439999999999999;0.0098080070980904599;-9.8100000000000005;0;0.62803817519999994;0
0.04845;-0.013679999999999999;0.0098369997243617467;-9.8100000000000005;0;0.62830014239999998;0
0.0485;-0.013679999999999999;0.0098660449758418353;-9.8100000000000005;0;0.62856208800000002;0
0.04855;-0.013679999999999999;0.0098951428777990635;-9.8100000000000005;0;0.62882403360000005;0
0.0486;-0.013679999999999999;0.0099242934554181102;-9.8100000000000005;0;0.62908598039999997;0
0.04865;-0.013679999999999999;0.0099534967337998655;-9.8100000000000005;0;0.62934794639999991;0
0.0487;-0.013679999999999999;0.0099827527379614863;-9.8100000000000005;0;0.62960989319999994;0
0.04875;-0.013679999999999999;0.010012061492836248;-9.8100000000000005;0;0.62987183879999997;0
0.0488;-0.013679999999999999;0.010041423023273479;-9.8100000000000005;0;0.63013378440000001;0
0.04885;-0.013679999999999999;0.010070837354038617;-9.8100000000000005;0;0.63039575160000005;0
0.0489;-0.013679999999999999;0.010100304509813052;-9.8100000000000005;0;0.63065769719999987;0
0.04895;-0.01404;0.010129824515194116;-9.8100000000000005;0;0.630919644;0
0.049;-0.01404;0.010159397394694958;-9.8100000000000005;0;0.63118161119999994;0
0.04905;-0.01404;0.010189023172744633;-9.8100000000000005;0;0.63144355679999997;0
0.0491;-0.01404;0.010218701873687903;-9.8100000000000005;0;0.63170550240000001;0
0.04915;-0.01404;0.010248433521785241;-9.8100000000000005;0;0.63196744919999992;0
0.0492;-0.01404;0.010278218141212827;-9.8100000000000005;0;0.63222941519999998;0
0.04925;-0.01404;0.01030805575606239;-9.8100000000000005;0;0.63249136199999989;0
0.0493;-0.01404;0.010337946390341244;-9.8100000000000005;0;0.63275330759999993;0
0.04935;-0.01404;0.01036789006797215;-9.8100000000000005;0;0.63301525319999996;0
0.0494;-0.01404;0.010397886812793354;-9.8100000000000005;0;0.63327722040000001;0
0.04945;-0.014280000000000001;0.010427936648558489;-9.8100000000000005;0;0.63353916600000004;0
0.0495;-0.014280000000000001;0.010458039598936507;-9.8100000000000005;0;0.63380111279999995;0
0.04955;-0.014280000000000001;0.010488195687511626;-9.8100000000000005;0;0.63406305839999999;0
0.0496;-0.014280000000000001;0.010518404937783285;-9.8100000000000005;0;0.63432502559999993;0
0.04965;-0.014280000000000001;0.01054866737316615;-9.8100000000000005;0;0.63458697119999996;0
0.0497;-0.014280000000000001;0.010578983016989974;-9.8100000000000005;0;0.63484891799999998;0
0.04975;-0.014280000000000001;0.010609351892499537;-9.8100000000000005;0;0.63511086359999991;0
0.0498;-0.014280000000000001;0.010639774022854662;-9.8100000000000005;0;0.63537283080000007;0
0.04985;-0.014280000000000001;0.010670249431130161;-9.8100000000000005;0;0.63563477639999999;0
0.0499;-0.014280000000000001;0.010700778140315746;-9.8100000000000005;0;0.63589672199999991;0
0.04995;-0.014280000000000001;0.010731360173315904;-9.8100000000000005;0;0.63615868919999996;0
0.05;-0.014519999999999998;0.010761995552950055;-9.8100000000000005;0;0.6364206348;0
0.05005;-0.014519999999999998;0.01079268430195221;-9.8100000000000005;0;0.63668258160000002;0
0.0501;-0.014519999999999998;0.010823426442971251;-9.8100000000000005;0;0.63694452719999994;0
0.05015;-0.014519999999999998;0.010854221998570522;-9.8100000000000005;0;0.63720649439999988;0
0.0502;-0.014519999999999998;0.010885070991228119;-9.8100000000000005;0;0.63746843999999991;0
0.05025;-0.014519999999999998;0.010915973443336554;-9.8100000000000005;0;0.63773038679999994;0
0.0503;-0.014519999999999998;0.010946929377202912;-9.8100000000000005;0;0.63799233239999997;0
0.05035;-0.014519999999999998;0.010977938815048629;-9.8100000000000005;0;0.63825429960000002;0
0.0504;-0.014519999999999998;0.011009001779009625;-9.8100000000000005;0;0.63851624520000005;0
0.05045;-0.014519999999999998;0.011040118291136035;-9.8100000000000005;0;0.63877819079999998;0
0.0505;-0.014519999999999998;0.011071288373392383;-9.8100000000000005;0;0.6390401376;0
0.05055;-0.014759999999999999;0.0111025120476573;-9.8100000000000005;0;0.63930210359999995;0
0.0506;-0.014759999999999999;0.011133789335723732;-9.8100000000000005;0;0.63956405039999997;0
0.05065;-0.014759999999999999;0.011165120259298595;-9.8100000000000005;0;0.63982599600000001;0
0.0507;-0.014759999999999999;0.011196504840002994;-9.8100000000000005;0;0.64008794159999993;0
0.05075;-0.014759999999999999;0.011227943099372008;-9.8100000000000005;0;0.64034990879999987;0
0.0508;-0.014759999999999999;0.011259435058854694;-9.8100000000000005;0;0.6406118556;0
0.05085;-0.014759999999999999;0.011290980739813978;-9.8100000000000005;0;0.64087380120000004;0
0.0509;-0.014759999999999999;0.011322580163526746;-9.8100000000000005;0;0.64113576839999997;0
0.05095;-0.014759999999999999;0.01135423335118362;-9.8100000000000005;0;0.64139771400000001;0
0.051;-0.014999999999999999;0.011385940323889024;-9.8100000000000005;0;0.64165965960000004;0
0.05105;-0.014999999999999999;0.011417701102661069;-9.8100000000000005;0;0.64192160639999996;0
0.0511;-0.014999999999999999;0.011449515708431526;-9.8100000000000005;0;0.6421835723999999;0
0.05115;-0.014999999999999999;0.011481384162045839;-9.8100000000000005;0;0.64244551919999993;0
0.0512;-0.014999999999999999;0.011513306484262908;-9.8100000000000005;0;0.64270746479999996;0
0.05125;-0.014999999999999999;0.01154528269575527;-9.8100000000000005;0;0.6429694104;0
0.0513;-0.014999999999999999;0.011577312817108778;-9.8100000000000005;0;0.64323137760000004;0
0.05135;-0.014999999999999999;0.011609396868822825;-9.8100000000000005;0;0.64349332439999996;0
0.0514;-0.014999999999999999;0.011641534871310092;-9.8100000000000005;0;0.64375526999999999;0
0.05145;-0.014999999999999999;0.011673726844896605;-9.8100000000000005;0;0.64401721560000003;0
0.0515;-0.014999999999999999;0.011705972809821568;-9.8100000000000005;0;0.64427918279999996;0
0.05155;-0.015239999999999998;0.011738272786237515;-9.8100000000000005;0;0.6445411284;0
0.0516;-0.015239999999999998;0.011770626794210056;-9.8100000000000005;0;0.64480307519999991;0
0.05165;-0.015239999999999998;0.011803034853717946;-9.8100000000000005;0;0.64506504119999997;0
0.0517;-0.015239999999999998;0.011835496984652976;-9.8100000000000005;0;0.64532698799999999;0
0.05175;-0.015239999999999998;0.011868013206819975;-9.8100000000000005;0;0.64558893359999991;0
0.0518;-0.015239999999999998;0.011900583539936694;-9.8100000000000005;0;0.64585087919999995;0
0.05185;-0.015239999999999998;0.01193320800363384;-9.8100000000000005;0;0.6461128464;0
0.0519;-0.015239999999999998;0.011965886617454942;-9.8100000000000005;0;0.64637479320000002;0
0.05195;-0.015239999999999998;0.011998619400856366;-9.8100000000000005;0;0.64663673879999994;0
0.052;-0.015239999999999998;0.012031406373207244;-9.8100000000000005;0;0.64689868439999998;0
0.05205;-0.015479999999999999;0.012064247553789431;-9.8100000000000005;0;0.64716065159999991;0
0.0521;-0.015479999999999999;0.012097142961797395;-9.8100000000000005;0;0.64742259719999995;0
0.05215;-0.015479999999999999;0.012130092616338302;-9.8100000000000005;0;0.64768454399999997;0
0.0522;-0.015479999999999999;0.012163096536431784;-9.8100000000000005;0;0.6479464895999999;0
0.05225;-0.015479999999999999;0.012196154741010094;-9.8100000000000005;0;0.64820845680000005;0
0.0523;-0.015479999999999999;0.01222926724891792;-9.8100000000000005;0;0.64847040239999998;0
0.05235;-0.015479999999999999;0.012262434078912327;-9.8100000000000005;0;0.64873234800000001;0
0.0524;-0.015479999999999999;0.012295655249662828;-9.8100000000000005;0;0.64899429480000004;0
0.05245;-0.015479999999999999;0.012328930779751196;-9.8100000000000005;0;0.64925626079999998;0
0.0525;-0.015479999999999999;0.012362260687671571;-9.8100000000000005;0;0.64951820760000001;0
0.05255;-0.015479999999999999;0.012395644991830211;-9.8100000000000005;0;0.64978015319999993;0
0.0526;-0.015720000000000001;0.012429083710545616;-9.8100000000000005;0;0.65004212039999987;0
0.05265;-0.015720000000000001;0.012462576862048437;-9.8100000000000005;0;0.6503040659999999;0
0.0527;-0.015720000000000001;0.012496124464481366;-9.8100000000000005;0;0.65056601280000004;0
0.05275;-0.015720000000000001;0.01252972653589916;-9.8100000000000005;0;0.65082795839999996;0
0.0528;-0.015720000000000001;0.012563383094268585;-9.8100000000000005;0;0.65108992560000001;0
0.05285;-0.015720000000000001;0.012597094157468302;-9.8100000000000005;0;0.65135187120000004;0
0.0529;-0.015720000000000001;0.012630859743288919;-9.8100000000000005;0;0.65161381679999997;0
0.05295;-0.015720000000000001;0.012664679869432838;-9.8100000000000005;0;0.65187576359999999;0
0.053;-0.015720000000000001;0.012698554553514315;-9.8100000000000005;0;0.65213772959999994;0
0.05305;-0.015959999999999998;0.012732483813059333;-9.8100000000000005;0;0.65239967639999996;0
0.0531;-0.015959999999999998;0.012766467665505574;-9.8100000000000005;0;0.652661622;0
0.05315;-0.015959999999999998;0.01280050612820241;-9.8100000000000005;0;0.65292356759999992;0
0.0532;-0.015959999999999998;0.012834599218410821;-9.8100000000000005;0;0.65318553480000008;0
0.05325;-0.015959999999999998;0.012868746953303306;-9.8100000000000005;0;0.65344748159999999;0
0.0533;-0.015959999999999998;0.012902949349963973;-9.8100000000000005;0;0.65370942720000003;0
0.05335;-0.015959999999999998;0.012937206425388304;-9.8100000000000005;0;0.65397137280000006;0
0.0534;-0.015959999999999998;0.01297151819648326;-9.8100000000000005;0;0.65423334;0
0.05345;-0.015959999999999998;0.013005884680067225;-9.8100000000000005;0;0.65449528560000003;0
0.0535;-0.016199999999999999;0.013040305892869806;-9.8100000000000005;0;0.65475723239999994;0
0.05355;-0.016199999999999999;0.013074781851532038;-9.8100000000000005;0;0.65501919839999989;0
0.0536;-0.016199999999999999;0.013109312572606049;-9.8100000000000005;0;0.65528114519999991;0
0.05365;-0.016199999999999999;0.013143898072555298;-9.8100000000000005;0;0.65554309079999995;0
0.0537;-0.016199999999999999;0.013178538367754306;-9.8100000000000005;0;0.65580503639999999;0
0.05375;-0.016199999999999999;0.013213233474488752;-9.8100000000000005;0;0.65606700360000003;0
0.0538;-0.016199999999999999;0.013247983408955336;-9.8100000000000005;0;0.65632895039999994;0
0.05385;-0.016199999999999999;0.013282788187261771;-9.8100000000000005;0;0.65659089599999998;0
0.0539;-0.016199999999999999;0.013317647825426751;-9.8100000000000005;0;0.65685284160000001;0
0.05395;-0.016199999999999999;0.013352562339379918;-9.8100000000000005;0;0.65711480879999995;0
0.054;-0.01644;0.013387531744961765;-9.8100000000000005;0;0.65737675439999999;0
0.05405;-0.01644;0.013422556057923619;-9.8100000000000005;0;0.6576387011999999;0
0.0541;-0.01644;0.013457635293927581;-9.8100000000000005;0;0.65790064679999993;0
0.05415;-0.01644;0.013492769468546519;-9.8100000000000005;0;0.65816261399999998;0
0.0542;-0.01644;0.013527958597263984;-9.8100000000000005;0;0.65842455960000001;0
0.05425;-0.01644;0.013563202695474161;-9.8100000000000005;0;0.65868650519999994;0
0.0543;-0.01644;0.013598501778481908;-9.8100000000000005;0;0.65894847239999998;0
0.05435;-0.01644;0.013633855861502547;-9.8100000000000005;0;0.65921041920000001;0
0.0544;-0.01644;0.013669264959662026;-9.8100000000000005;0;0.65947236479999993;0
0.05445;-0.016679999999999997;0.013704729087996668;-9.8100000000000005;0;0.65973431039999997;0
0.0545;-0.016679999999999997;0.013740248261453286;-9.8100000000000005;0;0.6599962775999999;0
0.05455;-0.016679999999999997;0.013775822494889071;-9.8100000000000005;0;0.66025822319999994;0
0.0546;-0.016679999999999997;0.013811451803071544;-9.8100000000000005;0;0.66052016999999996;0
0.05465;-0.016679999999999997;0.013847136200678543;-9.8100000000000005;0;0.66078211559999989;0
0.0547;-0.016679999999999997;0.013882875702298098;-9.8100000000000005;0;0.66104408280000004;0
0.05475;-0.016679999999999997;0.013918670322428514;-9.8100000000000005;0;0.66130602839999997;0
0.0548;-0.016679999999999997;0.013954520075478274;-9.8100000000000005;0;0.661567974;0
0.05485;-0.016679999999999997;0.013990424975765905;-9.8100000000000005;0;0.66182992080000003;0
0.0549;-0.016919999999999998;0.01402638503752004;-9.8100000000000005;0;0.66209188799999996;0
0.05495;-0.016919999999999998;0.014062400274879426;-9.8100000000000005;0;0.6623538336;0
0.055;-0.016919999999999998;0.014098470701892706;-9.8100000000000005;0;0.66261577919999992;0
0.05505;-0.016919999999999998;0.014134596332518484;-9.8100000000000005;0;0.66287772599999994;0
0.0551;-0.016919999999999998;0.014170777180625316;-9.8100000000000005;0;0.66313969199999989;0
0.05515;-0.016919999999999998;0.014207013259991599;-9.8100000000000005;0;0.66340163880000003;0
0.0552;-0.016919999999999998;0.014243304584305495;-9.8100000000000005;0;0.66366358440000006;0
0.05525;-0.016919999999999998;0.014279651167165055;-9.8100000000000005;0;0.6639255516;0
0.0553;-0.016919999999999998;0.014316053022077968;-9.8100000000000005;0;0.66418749720000003;0
0.05535;-0.017159999999999998;0.014352510162461607;-9.8100000000000005;0;0.66444944279999996;0
0.0554;-0.017159999999999998;0.014389022601643082;-9.8100000000000005;0;0.66471138959999998;0
0.05545;-0.017159999999999998;0.014425590352859046;-9.8100000000000005;0;0.66497335679999992;0
0.0555;-0.017159999999999998;0.014462213429255723;-9.8100000000000005;0;0.66523530239999995;0
0.05555;-0.017159999999999998;0.014498891843888844;-9.8100000000000005;0;0.66549724799999999;0
0.0556;-0.017159999999999998;0.014535625609723633;-9.8100000000000005;0;0.6657591947999999;0
0.05565;-0.017159999999999998;0.014572414739634788;-9.8100000000000005;0;0.66602116080000007;0
0.0557;-0.017159999999999998;0.014609259246406334;-9.8100000000000005;0;0.66628310759999998;0
0.05575;-0.017159999999999998;0.01464615914273169;-9.8100000000000005;0;0.66654505320000002;0
0.0558;-0.017399999999999999;0.014683114441213585;-9.8100000000000005;0;0.66680699880000005;0
0.05585;-0.017399999999999999;0.014720125154363989;-9.8100000000000005;0;0.66706896599999999;0
0.0559;-0.017399999999999999;0.014757191294604132;-9.8100000000000005;0;0.66733091160000002;0
0.05595;-0.017399999999999999;0.01479431287426441;-9.8100000000000005;0;0.66759285839999993;0
0.056;-0.017399999999999999;0.014831489905584373;-9.8100000000000005;0;0.66785482559999998;0
0.05605;-0.017399999999999999;0.014868722400712669;-9.8100000000000005;0;0.66811677120000001;0
0.0561;-0.017399999999999999;0.014906010371707034;-9.8100000000000005;0;0.66837871679999994;0
0.05615;-0.017399999999999999;0.014943353830534177;-9.8100000000000005;0;0.66864066239999997;0
0.0562;-0.017399999999999999;0.014980752789069813;-9.8100000000000005;0;0.66890262960000002;0
0.05625;-0.017399999999999999;0.015018207259098615;-9.8100000000000005;0;0.66916457639999993;0
0.0563;-0.017639999999999999;0.015055717252314114;-9.8100000000000005;0;0.66942652199999997;0
0.05635;-0.017639999999999999;0.01509328278031871;-9.8100000000000005;0;0.6696884676;0
0.0564;-0.017639999999999999;0.015130903854623658;-9.8100000000000005;0;0.66995043479999994;0
0.05645;-0.017639999999999999;0.01516858048664896;-9.8100000000000005;0;0.67021238039999997;0
0.0565;-0.017639999999999999;0.015206312687723317;-9.8100000000000005;0;0.67047432719999989;0
0.05655;-0.017639999999999999;0.015244100469084179;-9.8100000000000005;0;0.67073627279999992;0
0.0566;-0.017639999999999999;0.015281943841877641;-9.8100000000000005;0;0.67099823999999997;0
0.05665;-0.017639999999999999;0.015319842817158414;-9.8100000000000005;0;0.6712601856;0
0.0567;-0.017639999999999999;0.01535779740588976;-9.8100000000000005;0;0.67152213120000004;0
0.05675;-0.01788;0.015395807618943496;-9.8100000000000005;0;0.67178407800000006;0
0.0568;-0.01788;0.015433873467099951;-9.8100000000000005;0;0.6720460452;0
0.05685;-0.01788;0.015471994961047845;-9.8100000000000005;0;0.67230799079999992;0
0.0569;-0.01788;0.015510172111384399;-9.8100000000000005;0;0.67256993639999996;0
0.05695;-0.01788;0.015548404928615164;-9.8100000000000005;0;0.67283190359999989;0
0.057;-0.01788;0.015586693423154028;-9.8100000000000005;0;0.67309384919999993;0
0.05705;-0.01788;0.015625037605323154;-9.8100000000000005;0;0.67335579600000006;0
0.0571;-0.01788;0.015663437485353052;-9.8100000000000005;0;0.67361774159999988;0
0.05715;-0.01788;0.015701893073382329;-9.8100000000000005;0;0.67387970880000003;0
0.0572;-0.01788;0.015740404379457892;-9.8100000000000005;0;0.67414165439999996;0
0.05725;-0.018120000000000001;0.015778971413534702;-9.8100000000000005;0;0.67440359999999999;0
0.0573;-0.018120000000000001;0.015817594185475872;-9.8100000000000005;0;0.67466554680000002;0
0.05735;-0.018120000000000001;0.015856272705052535;-9.8100000000000005;0;0.67492751399999995;0
0.0574;-0.018120000000000001;0.01589500698194387;-9.8100000000000005;0;0.67518945959999999;0
0.05745;-0.018120000000000001;0.015933797025737072;-9.8100000000000005;0;0.67545140519999991;0
0.0575;-0.018120000000000001;0.015972642845927219;-9.8100000000000005;0;0.67571335199999993;0
0.05755;-0.018120000000000001;0.016011544451917395;-9.8100000000000005;0;0.67597531799999999;0
0.0576;-0.018120000000000001;0.016050501853018456;-9.8100000000000005;0;0.67623726480000002;0
0.05765;-0.018120000000000001;0.016089515058449147;-9.8100000000000005;0;0.67649921040000005;0
0.0577;-0.018359999999999998;0.016128584077335979;-9.8100000000000005;0;0.67676115600000009;0
0.05775;-0.018359999999999998;0.016167708918713285;-9.8100000000000005;0;0.67702312320000002;0
0.0578;-0.018359999999999998;0.016206889591522992;-9.8100000000000005;0;0.67728506879999995;0
0.05785;-0.018359999999999998;0.016246126104614837;-9.8100000000000005;0;0.67754701559999997;0
0.0579;-0.018359999999999998;0.016285418466746169;-9.8100000000000005;0;0.67780898280000001;0
0.05795;-0.018359999999999998;0.016324766686581851;-9.8100000000000005;0;0.67807092839999994;0
0.058;-0.018359999999999998;0.016364170772694472;-9.8100000000000005;0;0.67833287399999997;0
0.05805;-0.018359999999999998;0.01640363073356399;-9.8100000000000005;0;0.6785948208;0
0.0581;-0.018359999999999998;0.016443146577578015;-9.8100000000000005;0;0.67885678680000006;0
0.05815;-0.018359999999999998;0.016482718313031473;-9.8100000000000005;0;0.67911873359999997;0
0.0582;-0.018599999999999998;0.016522345948126814;-9.8100000000000005;0;0.6793806792;0
0.05825;-0.018599999999999998;0.016562029490973809;-9.8100000000000005;0;0.67964262480000004;0
0.0583;-0.018599999999999998;0.016601768949589583;-9.8100000000000005;0;0.67990459199999997;0
0.05835;-0.018599999999999998;0.016641564331898631;-9.8100000000000005;0;0.68016653760000001;0
0.0584;-0.018599999999999998;0.016681415645732646;-9.8100000000000005;0;0.68042848439999992;0
0.05845;-0.018599999999999998;0.016721322898830587;-9.8100000000000005;0;0.68069042999999996;0
0.0585;-0.018599999999999998;0.016761286098838601;-9.8100000000000005;0;0.6809523972;0
0.05855;-0.018599999999999998;0.016801305253310053;-9.8100000000000005;0;0.68121434280000004;0
0.0586;-0.018599999999999998;0.016841380369705367;-9.8100000000000005;0;0.68147628960000006;0
0.05865;-0.018839999999999999;0.01688151145539207;-9.8100000000000005;0;0.68173825560000001;0
0.0587;-0.018839999999999999;0.016921698517644784;-9.8100000000000005;0;0.68200020239999992;0
0.05875;-0.018839999999999999;0.016961941563645128;-9.8100000000000005;0;0.68226214799999996;0
0.0588;-0.018839999999999999;0.017002240600481687;-9.8100000000000005;0;0.68252409359999999;0
0.05885;-0.018839999999999999;0.017042595635150006;-9.8100000000000005;0;0.68278606079999993;0
0.0589;-0.018839999999999999;0.017083006674552551;-9.8100000000000005;0;0.68304800639999996;0
0.05895;-0.018839999999999999;0.017123473725498699;-9.8100000000000005;0;0.68330995319999988;0
0.059;-0.018839999999999999;0.017163996794704563;-9.8100000000000005;0;0.68357189879999991;0
0.05905;-0.018839999999999999;0.01720457588879316;-9.8100000000000005;0;0.68383386599999996;0
0.0591;-0.018839999999999999;0.01724521101429425;-9.8100000000000005;0;0.68409581159999999;0
0.05915;-0.01908;0.017285902177644318;-9.8100000000000005;0;0.68435775840000002;0
0.0592;-0.01908;0.017326649385186573;-9.8100000000000005;0;0.68461970400000005;0
0.05925;-0.01908;0.017367452643170852;-9.8100000000000005;0;0.68488167119999999;0
0.0593;-0.01908;0.017408311957753646;-9.8100000000000005;0;0.68514361679999991;0
0.05935;-0.01908;0.017449227334998037;-9.8100000000000005;0;0.68540556239999995;0
0.0594;-0.01908;0.01749019878087368;-9.8100000000000005;0;0.68566750919999997;0
0.05945;-0.01908;0.017531226301256763;-9.8100000000000005;0;0.68592947519999992;0
0.0595;-0.01908;0.017572309901929907;-9.8100000000000005;0;0.68619142200000005;0
0.05955;-0.01908;0.01761344958858229;-9.8100000000000005;0;0.68645336760000009;0
0.0596;-0.019439999999999999;0.017654645366809416;-9.8100000000000005;0;0.68671533480000002;0
0.05965;-0.019439999999999999;0.017695897242113241;-9.8100000000000005;0;0.68697728039999995;0
0.0597;-0.019439999999999999;0.017737205219902054;-9.8100000000000005;0;0.68723922599999998;0
0.05975;-0.019439999999999999;0.017778569305490495;-9.8100000000000005;0;0.6875011728;0
0.0598;-0.019439999999999999;0.017819989504099427;-9.8100000000000005;0;0.68776313999999994;0
0.05985;-0.019439999999999999;0.017861465820856036;-9.8100000000000005;0;0.68802508559999997;0
0.0599;-0.019439999999999999;0.017902998260793709;-9.8100000000000005;0;0.6882870311999999;0
0.05995;-0.019439999999999999;0.017944586828851979;-9.8100000000000005;0;0.68854897799999992;0
0.06;-0.019439999999999999;0.017986231529876575;-9.8100000000000005;0;0.68881094399999998;0
0.06005;-0.019439999999999999;0.018027932368619368;-9.8100000000000005;0;0.6890728908;0
0.0601;-0.01968;0.018069689349738266;-9.8100000000000005;0;0.68933483640000004;0
0.06015;-0.01968;0.018111502477797258;-9.8100000000000005;0;0.68959678200000007;0
0.0602;-0.01968;0.018153371757266334;-9.8100000000000005;0;0.68985874920000001;0
0.06025;-0.01968;0.018195297192521501;-9.8100000000000005;0;0.69012069479999993;0
0.0603;-0.01968;0.018237278787844716;-9.8100000000000005;0;0.69038264159999996;0
0.06035;-0.01968;0.018279316547423811;-9.8100000000000005;0;0.6906446088;0
0.0604;-0.01968;0.01832141047535259;-9.8100000000000005;0;0.69090655440000004;0
0.06045;-0.01968;0.018363560575630655;-9.8100000000000005;0;0.69116849999999996;0
0.0605;-0.01968;0.018405766852163441;-9.8100000000000005;0;0.69143044679999999;0
0.06055;-0.01992;0.018448029308762229;-9.8100000000000005;0;0.69169241280000004;0
0.0606;-0.01992;0.018490347949143948;-9.8100000000000005;0;0.69195435959999996;0
0.06065;-0.01992;0.018532722776931389;-9.8100000000000005;0;0.69221630519999999;0
0.0607;-0.01992;0.018575153795652964;-9.8100000000000005;0;0.69247825080000003;0
0.06075;-0.01992;0.018617641008742743;-9.8100000000000005;0;0.69274021799999996;0
0.0608;-0.01992;0.018660184419540468;-9.8100000000000005;0;0.6930021636;0
0.06085;-0.01992;0.018702784031291456;-9.8100000000000005;0;0.69326411039999991;0
0.0609;-0.01992;0.018745439847146585;-9.8100000000000005;0;0.69352605599999995;0
0.06095;-0.01992;0.018788151870162341;-9.8100000000000005;0;0.69378802319999999;0
0.061;-0.020159999999999997;0.018830920103300612;-9.8100000000000005;0;0.69404996880000003;0
0.06105;-0.020159999999999997;0.018873744549428868;-9.8100000000000005;0;0.69431191560000005;0
0.0611;-0.020159999999999997;0.01891662521131993;-9.8100000000000005;0;0.69457386119999998;0
0.06115;-0.020159999999999997;0.018959562091652088;-9.8100000000000005;0;0.69483582839999991;0
0.0612;-0.020159999999999997;0.019002555193009019;-9.8100000000000005;0;0.69509777399999995;0
0.06125;-0.020159999999999997;0.019045604517879702;-9.8100000000000005;0;0.69535971959999998;0
0.0613;-0.020159999999999997;0.01908871006865848;-9.8100000000000005;0;0.69562168679999992;0
0.06135;-0.020159999999999997;0.019131871847644998;-9.8100000000000005;0;0.69588363239999995;0
0.0614;-0.020159999999999997;0.01917508985704414;-9.8100000000000005;0;0.69614557920000009;0
0.06145;-0.020400000000000001;0.01921836409896599;-9.8100000000000005;0;0.6964075247999999;0
0.0615;-0.020400000000000001;0.019261694575425876;-9.8100000000000005;0;0.69666949199999995;0
0.06155;-0.020400000000000001;0.019305081288344284;-9.8100000000000005;0;0.69693143759999998;0
0.0616;-0.020400000000000001;0.019348524239546829;-9.8100000000000005;0;0.6971933844;0
0.06165;-0.020400000000000001;0.019392023430764259;-9.8100000000000005;0;0.69745533000000004;0
0.0617;-0.020400000000000001;0.019435578863632362;-9.8100000000000005;0;0.69771729719999998;0
0.06175;-0.020400000000000001;0.019479190539692024;-9.8100000000000005;0;0.6979792427999999;0
0.0618;-0.020400000000000001;0.019522858460389102;-9.8100000000000005;0;0.69824118839999993;0
0.06185;-0.020400000000000001;0.019566582627074464;-9.8100000000000005;0;0.69850313519999996;0
0.0619;-0.020400000000000001;0.019610363041003959;-9.8100000000000005;0;0.69876510120000002;0
0.06195;-0.020639999999999999;0.019654199703338333;-9.8100000000000005;0;0.69902704800000004;0
0.062;-0.020639999999999999;0.019698092615143242;-9.8100000000000005;0;0.69928899360000008;0
0.06205;-0.020639999999999999;0.019742041777389235;-9.8100000000000005;0;0.6995509392;0
0.0621;-0.020639999999999999;0.019786047190951683;-9.8100000000000005;0;0.69981290639999993;0
0.06215;-0.020639999999999999;0.019830108856610788;-9.8100000000000005;0;0.70007485319999996;0
0.0622;-0.020639999999999999;0.019874226775051549;-9.8100000000000005;0;0.70033679879999999;0
0.06225;-0.020639999999999999;0.019918400946863632;-9.8100000000000005;0;0.70059876600000004;0
0.0623;-0.020639999999999999;0.019962631372541582;-9.8100000000000005;0;0.70086071159999996;0
0.06235;-0.020639999999999999;0.020006918052484522;-9.8100000000000005;0;0.70112265719999989;0
0.0624;-0.020879999999999999;0.020051260986996264;-9.8100000000000005;0;0.70138460399999991;0
0.06245;-0.020879999999999999;0.020095660176285342;-9.8100000000000005;0;0.70164656999999997;0
0.0625;-0.020879999999999999;0.020140115620464829;-9.8100000000000005;0;0.70190851679999999;0
0.06255;-0.020879999999999999;0.020184627319552367;-9.8100000000000005;0;0.70217046240000003;0
0.0626;-0.020879999999999999;0.020229195273470248;-9.8100000000000005;0;0.70243240800000006;0
0.06265;-0.020879999999999999;0.020273819482045201;-9.8100000000000005;0;0.7026943752;0
0.0627;-0.020879999999999999;0.020318499945008527;-9.8100000000000005;0;0.70295632199999991;0
0.06275;-0.020879999999999999;0.020363236661995958;-9.8100000000000005;0;0.70321826759999995;0
0.0628;-0.020879999999999999;0.020408029632547658;-9.8100000000000005;0;0.70348021319999998;0
0.06285;-0.02112;0.020452878856108306;-9.8100000000000005;0;0.70374218040000003;0
0.0629;-0.02112;0.020497784332026824;-9.8100000000000005;0;0.70400412600000006;0
0.06295;-0.02112;0.020542746059556659;-9.8100000000000005;0;0.70426607279999998;0
0.063;-0.02112;0.020587764037855491;-9.8100000000000005;0;0.70452803880000003;0
0.06305;-0.02112;0.020632838265985293;-9.8100000000000005;0;0.70478998559999995;0
0.0631;-0.02112;0.020677968742912438;-9.8100000000000005;0;0.70505193119999998;0
0.06315;-0.02112;0.020723155467507453;-9.8100000000000005;0;0.70531387680000002;0
0.0632;-0.02112;0.02076839843854511;-9.8100000000000005;0;0.70557584399999995;0
0.06325;-0.02112;0.020813697654704429;-9.8100000000000005;0;0.70583779080000009;0
0.0633;-0.021360000000000001;0.020859053114568541;-9.8100000000000005;0;0.7060997363999999;0
0.06335;-0.021360000000000001;0.020904464816624828;-9.8100000000000005;0;0.70636168199999994;0
0.0634;-0.021360000000000001;0.020949932759264694;-9.8100000000000005;0;0.70662364919999998;0
0.06345;-0.021360000000000001;0.020995456940783669;-9.8100000000000005;0;0.70688559480000002;0
0.0635;-0.021360000000000001;0.021041037359381377;-9.8100000000000005;0;0.70714754160000004;0
0.06355;-0.021360000000000001;0.021086674013161489;-9.8100000000000005;0;0.70740948719999996;0
0.0636;-0.021360000000000001;0.021132366900131656;-9.8100000000000005;0;0.7076714543999999;0
0.06365;-0.021360000000000001;0.02117811601820355;-9.8100000000000005;0;0.70793339999999993;0
0.0637;-0.021360000000000001;0.021223921365192834;-9.8100000000000005;0;0.70819534559999997;0
0.06375;-0.021360000000000001;0.021269782938819044;-9.8100000000000005;0;0.70845729239999999;0
0.0638;-0.021599999999999998;0.021315700736705735;-9.8100000000000005;0;0.70871925839999994;0
0.06385;-0.021599999999999998;0.021361674756380254;-9.8100000000000005;0;0.70898120520000008;0
0.0639;-0.021599999999999998;0.021407704995273839;-9.8100000000000005;0;0.7092431508;0
0.06395;-0.021599999999999998;0.02145379145072163;-9.8100000000000005;0;0.70950511799999993;0
0.064;-0.021599999999999998;0.0214999341199625;-9.8100000000000005;0;0.70976706359999997;0
0.06405;-0.021599999999999998;0.021546133000139189;-9.8100000000000005;0;0.71002901039999999;0
0.0641;-0.021599999999999998;0.021592388088298102;-9.8100000000000005;0;0.71029095600000003;0
0.06415;-0.021599999999999998;0.021638699381389466;-9.8100000000000005;0;0.71055292319999996;0
0.0642;-0.021840000000000002;0.021685066876267225;-9.8100000000000005;0;0.71081486879999989;0
0.06425;-0.021840000000000002;0.021731490569688997;-9.8100000000000005;0;0.71107681439999992;0
0.0643;-0.021840000000000002;0.021777970458316025;-9.8100000000000005;0;0.71133876119999995;0
0.06435;-0.021840000000000002;0.021824506538713262;-9.8100000000000005;0;0.71160072720000001;0
